"rt","key_press","trial_type","trial_index","time_elapsed","internal_node_id","pid","seed","gun_key","nogun_key","left_obj","right_obj","stimulus","constrast","obj_type","face_id","obj_id","rt_from_start","correct"
"2972","32","text","0","2975","0.0-0.0","-1","1492035703161","i","e","NO GUN","GUN","","","","","","",""
"13724","32","text","1","17703","0.0-1.0","-1","1492035703161","i","e","NO GUN","GUN","","","","","","",""
"","","sequential-priming","2","21728","0.0-2.0","-1","1492035703161","i","e","NO GUN","GUN","[""<div id=\""jspsych-countdown-numbers\"">3</div>"",""<div id=\""jspsych-countdown-numbers\"">2</div>"",""<div id=\""jspsych-countdown-numbers\"">1</div>""]","","","","","",""
"","","sequential-priming","3","24651","0.0-3.0-0.0","-1","1492035703161","i","e","NO GUN","GUN","[""MaskReal.png"",""./HiCon/SHINEd_Hi_WM-207-048-N.png"",""./GrayNonguns/wallet_2.png"",""MaskReal.png""]","high","nogun","SHINEd_Hi_WM-207-048-N.png","wallet_2.png","",""
"280","73","sequential-priming","4","27341","0.0-3.0-1.0","-1","1492035703161","i","e","NO GUN","GUN","[""MaskReal.png"",""./HiCon/SHINEd_Hi_WM-254-152-N.png"",""./GrayNonguns/wallet_8.png"",""MaskReal.png""]","high","nogun","SHINEd_Hi_WM-254-152-N.png","wallet_8.png","680","false"
"62","69","sequential-priming","5","29812","0.0-3.0-2.0","-1","1492035703161","i","e","NO GUN","GUN","[""MaskReal.png"",""./LoCon/SHINEd_Lo_WM-032-001-N.png"",""./GrayGuns/gun_6.png"",""MaskReal.png""]","low","gun","SHINEd_Lo_WM-032-001-N.png","gun_6.png","462","false"
"183","69","sequential-priming","6","32403","0.0-3.0-3.0","-1","1492035703161","i","e","NO GUN","GUN","[""MaskReal.png"",""./LoCon/SHINEd_Lo_WM-035-032-N.png"",""./GrayNonguns/keys_3.png"",""MaskReal.png""]","low","nogun","SHINEd_Lo_WM-035-032-N.png","keys_3.png","583","true"
"496","73","sequential-priming","7","35306","0.0-3.0-4.0","-1","1492035703161","i","e","NO GUN","GUN","[""MaskReal.png"",""./HiCon/SHINEd_Hi_WM-252-224-N.png"",""./GrayNonguns/tool_7.png"",""MaskReal.png""]","high","nogun","SHINEd_Hi_WM-252-224-N.png","tool_7.png","896","false"
"585","73","sequential-priming","8","38297","0.0-3.0-5.0","-1","1492035703161","i","e","NO GUN","GUN","[""MaskReal.png"",""./LoCon/SHINEd_Lo_WM-003-002-N.png"",""./GrayGuns/gun_9.png"",""MaskReal.png""]","low","gun","SHINEd_Lo_WM-003-002-N.png","gun_9.png","985","true"
"","","sequential-priming","9","41213","0.0-3.0-6.0","-1","1492035703161","i","e","NO GUN","GUN","[""MaskReal.png"",""./HiCon/SHINEd_Hi_WM-041-021-N.png"",""./GrayNonguns/keys_2.png"",""MaskReal.png""]","high","nogun","SHINEd_Hi_WM-041-021-N.png","keys_2.png","",""
"","","sequential-priming","10","44128","0.0-3.0-7.0","-1","1492035703161","i","e","NO GUN","GUN","[""MaskReal.png"",""./LoCon/SHINEd_Lo_WM-028-003-N.png"",""./GrayGuns/gun_17.png"",""MaskReal.png""]","low","gun","SHINEd_Lo_WM-028-003-N.png","gun_17.png","",""
"","","sequential-priming","11","47042","0.0-3.0-8.0","-1","1492035703161","i","e","NO GUN","GUN","[""MaskReal.png"",""./LoCon/SHINEd_Lo_WM-213-076-N.png"",""./GrayNonguns/tool_6.png"",""MaskReal.png""]","low","nogun","SHINEd_Lo_WM-213-076-N.png","tool_6.png","",""
"","","sequential-priming","12","49958","0.0-3.0-9.0","-1","1492035703161","i","e","NO GUN","GUN","[""MaskReal.png"",""./LoCon/SHINEd_Lo_WM-001-0140-N.png"",""./GrayNonguns/wallet_4.png"",""MaskReal.png""]","low","nogun","SHINEd_Lo_WM-001-0140-N.png","wallet_4.png","",""
"764","73","sequential-priming","13","53129","0.0-3.0-10.0","-1","1492035703161","i","e","NO GUN","GUN","[""MaskReal.png"",""./HiCon/SHINEd_Hi_WM-250-157-N.png"",""./GrayNonguns/keys_7.png"",""MaskReal.png""]","high","nogun","SHINEd_Hi_WM-250-157-N.png","keys_7.png","1164","false"
"81","73","sequential-priming","14","55617","0.0-3.0-11.0","-1","1492035703161","i","e","NO GUN","GUN","[""MaskReal.png"",""./HiCon/SHINEd_Hi_WM-002-009-N.png"",""./GrayNonguns/keys_3.png"",""MaskReal.png""]","high","nogun","SHINEd_Hi_WM-002-009-N.png","keys_3.png","481","false"
"","","sequential-priming","15","58529","0.0-3.0-12.0","-1","1492035703161","i","e","NO GUN","GUN","[""MaskReal.png"",""./HiCon/SHINEd_Hi_WM-013-001-N.png"",""./GrayGuns/gun_5.png"",""MaskReal.png""]","high","gun","SHINEd_Hi_WM-013-001-N.png","gun_5.png","",""
"","","sequential-priming","16","61450","0.0-3.0-13.0","-1","1492035703161","i","e","NO GUN","GUN","[""MaskReal.png"",""./HiCon/SHINEd_Hi_WM-026-001-N.png"",""./GrayNonguns/wallet_8.png"",""MaskReal.png""]","high","nogun","SHINEd_Hi_WM-026-001-N.png","wallet_8.png","",""
"","","sequential-priming","17","64368","0.0-3.0-14.0","-1","1492035703161","i","e","NO GUN","GUN","[""MaskReal.png"",""./HiCon/SHINEd_Hi_WM-015-002-N*.png"",""./GrayGuns/gun_12.png"",""MaskReal.png""]","high","gun","SHINEd_Hi_WM-015-002-N*.png","gun_12.png","",""
"","","sequential-priming","18","67295","0.0-3.0-15.0","-1","1492035703161","i","e","NO GUN","GUN","[""MaskReal.png"",""./LoCon/SHINEd_Lo_WM-222-057-N.png"",""./GrayGuns/gun_10.png"",""MaskReal.png""]","low","gun","SHINEd_Lo_WM-222-057-N.png","gun_10.png","",""
"","","sequential-priming","19","70216","0.0-3.0-16.0","-1","1492035703161","i","e","NO GUN","GUN","[""MaskReal.png"",""./HiCon/SHINEd_Hi_WM-029-023-N.png"",""./GrayNonguns/keys_3.png"",""MaskReal.png""]","high","nogun","SHINEd_Hi_WM-029-023-N.png","keys_3.png","",""
"","","sequential-priming","20","73132","0.0-3.0-17.0","-1","1492035703161","i","e","NO GUN","GUN","[""MaskReal.png"",""./LoCon/SHINEd_Lo_WM-257-161-N.png"",""./GrayGuns/gun_6.png"",""MaskReal.png""]","low","gun","SHINEd_Lo_WM-257-161-N.png","gun_6.png","",""
"","","sequential-priming","21","76048","0.0-3.0-18.0","-1","1492035703161","i","e","NO GUN","GUN","[""MaskReal.png"",""./LoCon/SHINEd_Lo_WM-001-0140-N.png"",""./GrayGuns/gun_10.png"",""MaskReal.png""]","low","gun","SHINEd_Lo_WM-001-0140-N.png","gun_10.png","",""
"","","sequential-priming","22","78967","0.0-3.0-19.0","-1","1492035703161","i","e","NO GUN","GUN","[""MaskReal.png"",""./HiCon/SHINEd_Hi_WM-231-112-N.png"",""./GrayGuns/gun_7.png"",""MaskReal.png""]","high","gun","SHINEd_Hi_WM-231-112-N.png","gun_7.png","",""
"","","sequential-priming","23","81884","0.0-3.0-20.0","-1","1492035703161","i","e","NO GUN","GUN","[""MaskReal.png"",""./HiCon/SHINEd_Hi_WM-013-001-N.png"",""./GrayGuns/gun_3.png"",""MaskReal.png""]","high","gun","SHINEd_Hi_WM-013-001-N.png","gun_3.png","",""
"","","sequential-priming","24","84800","0.0-3.0-21.0","-1","1492035703161","i","e","NO GUN","GUN","[""MaskReal.png"",""./LoCon/SHINEd_Lo_WM-230-131-N.png"",""./GrayGuns/gun_4.png"",""MaskReal.png""]","low","gun","SHINEd_Lo_WM-230-131-N.png","gun_4.png","",""
"","","sequential-priming","25","87717","0.0-3.0-22.0","-1","1492035703161","i","e","NO GUN","GUN","[""MaskReal.png"",""./LoCon/SHINEd_Lo_WM-019-003-N.png"",""./GrayNonguns/cell_7.png"",""MaskReal.png""]","low","nogun","SHINEd_Lo_WM-019-003-N.png","cell_7.png","",""
"","","sequential-priming","26","90633","0.0-3.0-23.0","-1","1492035703161","i","e","NO GUN","GUN","[""MaskReal.png"",""./LoCon/SHINEd_Lo_WM-034-030-N.png"",""./GrayGuns/gun_15.png"",""MaskReal.png""]","low","gun","SHINEd_Lo_WM-034-030-N.png","gun_15.png","",""
"","","sequential-priming","27","93546","0.0-3.0-24.0","-1","1492035703161","i","e","NO GUN","GUN","[""MaskReal.png"",""./LoCon/SHINEd_Lo_WM-213-076-N.png"",""./GrayNonguns/keys_8.png"",""MaskReal.png""]","low","nogun","SHINEd_Lo_WM-213-076-N.png","keys_8.png","",""
"","","sequential-priming","28","96461","0.0-3.0-25.0","-1","1492035703161","i","e","NO GUN","GUN","[""MaskReal.png"",""./LoCon/SHINEd_Lo_WM-002-009-N.png"",""./GrayGuns/gun_16.png"",""MaskReal.png""]","low","gun","SHINEd_Lo_WM-002-009-N.png","gun_16.png","",""
"","","sequential-priming","29","99375","0.0-3.0-26.0","-1","1492035703161","i","e","NO GUN","GUN","[""MaskReal.png"",""./LoCon/SHINEd_Lo_WM-222-057-N.png"",""./GrayGuns/gun_18.png"",""MaskReal.png""]","low","gun","SHINEd_Lo_WM-222-057-N.png","gun_18.png","",""
"","","sequential-priming","30","102289","0.0-3.0-27.0","-1","1492035703161","i","e","NO GUN","GUN","[""MaskReal.png"",""./LoCon/SHINEd_Lo_WM-041-021-N.png"",""./GrayGuns/gun_8.png"",""MaskReal.png""]","low","gun","SHINEd_Lo_WM-041-021-N.png","gun_8.png","",""
"","","sequential-priming","31","105200","0.0-3.0-28.0","-1","1492035703161","i","e","NO GUN","GUN","[""MaskReal.png"",""./HiCon/SHINEd_Hi_WM-256-138-N.png"",""./GrayGuns/gun_7.png"",""MaskReal.png""]","high","gun","SHINEd_Hi_WM-256-138-N.png","gun_7.png","",""
"","","sequential-priming","32","108115","0.0-3.0-29.0","-1","1492035703161","i","e","NO GUN","GUN","[""MaskReal.png"",""./HiCon/SHINEd_Hi_WM-012-001-N.png"",""./GrayNonguns/tool_6.png"",""MaskReal.png""]","high","nogun","SHINEd_Hi_WM-012-001-N.png","tool_6.png","",""
"","","sequential-priming","33","111030","0.0-3.0-30.0","-1","1492035703161","i","e","NO GUN","GUN","[""MaskReal.png"",""./LoCon/SHINEd_Lo_WM-033-025-N.png"",""./GrayNonguns/wallet_8.png"",""MaskReal.png""]","low","nogun","SHINEd_Lo_WM-033-025-N.png","wallet_8.png","",""
"","","sequential-priming","34","113946","0.0-3.0-31.0","-1","1492035703161","i","e","NO GUN","GUN","[""MaskReal.png"",""./HiCon/SHINEd_Hi_WM-253-119-N.png"",""./GrayGuns/gun_2.png"",""MaskReal.png""]","high","gun","SHINEd_Hi_WM-253-119-N.png","gun_2.png","",""
"","","sequential-priming","35","116863","0.0-3.0-32.0","-1","1492035703161","i","e","NO GUN","GUN","[""MaskReal.png"",""./HiCon/SHINEd_Hi_WM-222-057-N.png"",""./GrayNonguns/wallet_3.png"",""MaskReal.png""]","high","nogun","SHINEd_Hi_WM-222-057-N.png","wallet_3.png","",""
"","","sequential-priming","36","119777","0.0-3.0-33.0","-1","1492035703161","i","e","NO GUN","GUN","[""MaskReal.png"",""./LoCon/SHINEd_Lo_WM-243-107-N.png"",""./GrayNonguns/cell_7.png"",""MaskReal.png""]","low","nogun","SHINEd_Lo_WM-243-107-N.png","cell_7.png","",""
"","","sequential-priming","37","122692","0.0-3.0-34.0","-1","1492035703161","i","e","NO GUN","GUN","[""MaskReal.png"",""./LoCon/SHINEd_Lo_WM-257-161-N.png"",""./GrayGuns/gun_20.png"",""MaskReal.png""]","low","gun","SHINEd_Lo_WM-257-161-N.png","gun_20.png","",""
"","","sequential-priming","38","125608","0.0-3.0-35.0","-1","1492035703161","i","e","NO GUN","GUN","[""MaskReal.png"",""./LoCon/SHINEd_Lo_WM-039-018-N.png"",""./GrayGuns/gun_1.png"",""MaskReal.png""]","low","gun","SHINEd_Lo_WM-039-018-N.png","gun_1.png","",""
"","","sequential-priming","39","128523","0.0-3.0-36.0","-1","1492035703161","i","e","NO GUN","GUN","[""MaskReal.png"",""./HiCon/SHINEd_Hi_WM-010-001-N.png"",""./GrayNonguns/tool_8.png"",""MaskReal.png""]","high","nogun","SHINEd_Hi_WM-010-001-N.png","tool_8.png","",""
"","","sequential-priming","40","131440","0.0-3.0-37.0","-1","1492035703161","i","e","NO GUN","GUN","[""MaskReal.png"",""./LoCon/SHINEd_Lo_WM-004-010-N.png"",""./GrayNonguns/tool_4.png"",""MaskReal.png""]","low","nogun","SHINEd_Lo_WM-004-010-N.png","tool_4.png","",""
"","","sequential-priming","41","134354","0.0-3.0-38.0","-1","1492035703161","i","e","NO GUN","GUN","[""MaskReal.png"",""./HiCon/SHINEd_Hi_WM-032-001-N.png"",""./GrayNonguns/keys_2.png"",""MaskReal.png""]","high","nogun","SHINEd_Hi_WM-032-001-N.png","keys_2.png","",""
"","","sequential-priming","42","137268","0.0-3.0-39.0","-1","1492035703161","i","e","NO GUN","GUN","[""MaskReal.png"",""./LoCon/SHINEd_Lo_WM-003-002-N.png"",""./GrayNonguns/tool_5.png"",""MaskReal.png""]","low","nogun","SHINEd_Lo_WM-003-002-N.png","tool_5.png","",""
"","","sequential-priming","43","140186","0.0-3.0-40.0","-1","1492035703161","i","e","NO GUN","GUN","[""MaskReal.png"",""./LoCon/SHINEd_Lo_WM-242-011-N.png"",""./GrayNonguns/wallet_6.png"",""MaskReal.png""]","low","nogun","SHINEd_Lo_WM-242-011-N.png","wallet_6.png","",""
"","","sequential-priming","44","143101","0.0-3.0-41.0","-1","1492035703161","i","e","NO GUN","GUN","[""MaskReal.png"",""./LoCon/SHINEd_Lo_WM-035-032-N.png"",""./GrayGuns/gun_6.png"",""MaskReal.png""]","low","gun","SHINEd_Lo_WM-035-032-N.png","gun_6.png","",""
"","","sequential-priming","45","146017","0.0-3.0-42.0","-1","1492035703161","i","e","NO GUN","GUN","[""MaskReal.png"",""./LoCon/SHINEd_Lo_WM-002-009-N.png"",""./GrayGuns/gun_12.png"",""MaskReal.png""]","low","gun","SHINEd_Lo_WM-002-009-N.png","gun_12.png","",""
"","","sequential-priming","46","148933","0.0-3.0-43.0","-1","1492035703161","i","e","NO GUN","GUN","[""MaskReal.png"",""./HiCon/SHINEd_Hi_WM-225-127-N.png"",""./GrayGuns/gun_2.png"",""MaskReal.png""]","high","gun","SHINEd_Hi_WM-225-127-N.png","gun_2.png","",""
"","","sequential-priming","47","151847","0.0-3.0-44.0","-1","1492035703161","i","e","NO GUN","GUN","[""MaskReal.png"",""./LoCon/SHINEd_Lo_WM-029-023-N.png"",""./GrayGuns/gun_16.png"",""MaskReal.png""]","low","gun","SHINEd_Lo_WM-029-023-N.png","gun_16.png","",""
"","","sequential-priming","48","154765","0.0-3.0-45.0","-1","1492035703161","i","e","NO GUN","GUN","[""MaskReal.png"",""./HiCon/SHINEd_Hi_WM-031-003-N.png"",""./GrayNonguns/wallet_1.png"",""MaskReal.png""]","high","nogun","SHINEd_Hi_WM-031-003-N.png","wallet_1.png","",""
"","","sequential-priming","49","157680","0.0-3.0-46.0","-1","1492035703161","i","e","NO GUN","GUN","[""MaskReal.png"",""./HiCon/SHINEd_Hi_WM-243-107-N.png"",""./GrayNonguns/wallet_5.png"",""MaskReal.png""]","high","nogun","SHINEd_Hi_WM-243-107-N.png","wallet_5.png","",""
"","","sequential-priming","50","160594","0.0-3.0-47.0","-1","1492035703161","i","e","NO GUN","GUN","[""MaskReal.png"",""./LoCon/SHINEd_Lo_WM-249-239-N.png"",""./GrayGuns/gun_3.png"",""MaskReal.png""]","low","gun","SHINEd_Lo_WM-249-239-N.png","gun_3.png","",""
"","","sequential-priming","51","163509","0.0-3.0-48.0","-1","1492035703161","i","e","NO GUN","GUN","[""MaskReal.png"",""./HiCon/SHINEd_Hi_WM-256-138-N.png"",""./GrayNonguns/cell_5.png"",""MaskReal.png""]","high","nogun","SHINEd_Hi_WM-256-138-N.png","cell_5.png","",""
"","","sequential-priming","52","166422","0.0-3.0-49.0","-1","1492035703161","i","e","NO GUN","GUN","[""MaskReal.png"",""./HiCon/SHINEd_Hi_WM-040-022-N.png"",""./GrayNonguns/wallet_3.png"",""MaskReal.png""]","high","nogun","SHINEd_Hi_WM-040-022-N.png","wallet_3.png","",""
"","","sequential-priming","53","169339","0.0-3.0-50.0","-1","1492035703161","i","e","NO GUN","GUN","[""MaskReal.png"",""./HiCon/SHINEd_Hi_WM-258-125-N.png"",""./GrayNonguns/tool_2.png"",""MaskReal.png""]","high","nogun","SHINEd_Hi_WM-258-125-N.png","tool_2.png","",""
"","","sequential-priming","54","172254","0.0-3.0-51.0","-1","1492035703161","i","e","NO GUN","GUN","[""MaskReal.png"",""./LoCon/SHINEd_Lo_WM-036-031-N.png"",""./GrayNonguns/keys_1.png"",""MaskReal.png""]","low","nogun","SHINEd_Lo_WM-036-031-N.png","keys_1.png","",""
"","","sequential-priming","55","175168","0.0-3.0-52.0","-1","1492035703161","i","e","NO GUN","GUN","[""MaskReal.png"",""./LoCon/SHINEd_Lo_WM-252-224-N.png"",""./GrayGuns/gun_16.png"",""MaskReal.png""]","low","gun","SHINEd_Lo_WM-252-224-N.png","gun_16.png","",""
"","","sequential-priming","56","178087","0.0-3.0-53.0","-1","1492035703161","i","e","NO GUN","GUN","[""MaskReal.png"",""./LoCon/SHINEd_Lo_WM-040-022-N.png"",""./GrayGuns/gun_11.png"",""MaskReal.png""]","low","gun","SHINEd_Lo_WM-040-022-N.png","gun_11.png","",""
"","","sequential-priming","57","181001","0.0-3.0-54.0","-1","1492035703161","i","e","NO GUN","GUN","[""MaskReal.png"",""./HiCon/SHINEd_Hi_WM-006-002-N.png"",""./GrayNonguns/cell_3.png"",""MaskReal.png""]","high","nogun","SHINEd_Hi_WM-006-002-N.png","cell_3.png","",""
"","","sequential-priming","58","183917","0.0-3.0-55.0","-1","1492035703161","i","e","NO GUN","GUN","[""MaskReal.png"",""./HiCon/SHINEd_Hi_WM-001-0140-N.png"",""./GrayGuns/gun_13.png"",""MaskReal.png""]","high","gun","SHINEd_Hi_WM-001-0140-N.png","gun_13.png","",""
"","","sequential-priming","59","186831","0.0-3.0-56.0","-1","1492035703161","i","e","NO GUN","GUN","[""MaskReal.png"",""./HiCon/SHINEd_Hi_WM-011-002-N.png"",""./GrayNonguns/cell_3.png"",""MaskReal.png""]","high","nogun","SHINEd_Hi_WM-011-002-N.png","cell_3.png","",""
"","","sequential-priming","60","189745","0.0-3.0-57.0","-1","1492035703161","i","e","NO GUN","GUN","[""MaskReal.png"",""./LoCon/SHINEd_Lo_WM-212-097-N.png"",""./GrayNonguns/wallet_2.png"",""MaskReal.png""]","low","nogun","SHINEd_Lo_WM-212-097-N.png","wallet_2.png","",""
"","","sequential-priming","61","192657","0.0-3.0-58.0","-1","1492035703161","i","e","NO GUN","GUN","[""MaskReal.png"",""./HiCon/SHINEd_Hi_WM-014-002-N*.png"",""./GrayGuns/gun_5.png"",""MaskReal.png""]","high","gun","SHINEd_Hi_WM-014-002-N*.png","gun_5.png","",""
"","","sequential-priming","62","195571","0.0-3.0-59.0","-1","1492035703161","i","e","NO GUN","GUN","[""MaskReal.png"",""./HiCon/SHINEd_Hi_WM-205-007-N.png"",""./GrayNonguns/wallet_2.png"",""MaskReal.png""]","high","nogun","SHINEd_Hi_WM-205-007-N.png","wallet_2.png","",""
"","","sequential-priming","63","198486","0.0-3.0-60.0","-1","1492035703161","i","e","NO GUN","GUN","[""MaskReal.png"",""./HiCon/SHINEd_Hi_WM-003-002-N.png"",""./GrayNonguns/keys_4.png"",""MaskReal.png""]","high","nogun","SHINEd_Hi_WM-003-002-N.png","keys_4.png","",""
"","","sequential-priming","64","201401","0.0-3.0-61.0","-1","1492035703161","i","e","NO GUN","GUN","[""MaskReal.png"",""./LoCon/SHINEd_Lo_WM-249-239-N.png"",""./GrayNonguns/cell_8.png"",""MaskReal.png""]","low","nogun","SHINEd_Lo_WM-249-239-N.png","cell_8.png","",""
"","","sequential-priming","65","204314","0.0-3.0-62.0","-1","1492035703161","i","e","NO GUN","GUN","[""MaskReal.png"",""./LoCon/SHINEd_Lo_WM-218-074-N.png"",""./GrayGuns/gun_3.png"",""MaskReal.png""]","low","gun","SHINEd_Lo_WM-218-074-N.png","gun_3.png","",""
"","","sequential-priming","66","207225","0.0-3.0-63.0","-1","1492035703161","i","e","NO GUN","GUN","[""MaskReal.png"",""./HiCon/SHINEd_Hi_WM-238-020-N.png"",""./GrayGuns/gun_10.png"",""MaskReal.png""]","high","gun","SHINEd_Hi_WM-238-020-N.png","gun_10.png","",""
"","","sequential-priming","67","210142","0.0-3.0-64.0","-1","1492035703161","i","e","NO GUN","GUN","[""MaskReal.png"",""./LoCon/SHINEd_Lo_WM-208-068-N.png"",""./GrayGuns/gun_10.png"",""MaskReal.png""]","low","gun","SHINEd_Lo_WM-208-068-N.png","gun_10.png","",""
"","","sequential-priming","68","213054","0.0-3.0-65.0","-1","1492035703161","i","e","NO GUN","GUN","[""MaskReal.png"",""./LoCon/SHINEd_Lo_WM-010-001-N.png"",""./GrayNonguns/keys_2.png"",""MaskReal.png""]","low","nogun","SHINEd_Lo_WM-010-001-N.png","keys_2.png","",""
"","","sequential-priming","69","215967","0.0-3.0-66.0","-1","1492035703161","i","e","NO GUN","GUN","[""MaskReal.png"",""./LoCon/SHINEd_Lo_WM-019-003-N.png"",""./GrayGuns/gun_4.png"",""MaskReal.png""]","low","gun","SHINEd_Lo_WM-019-003-N.png","gun_4.png","",""
"","","sequential-priming","70","218879","0.0-3.0-67.0","-1","1492035703161","i","e","NO GUN","GUN","[""MaskReal.png"",""./LoCon/SHINEd_Lo_WM-038-003-N.png"",""./GrayGuns/gun_16.png"",""MaskReal.png""]","low","gun","SHINEd_Lo_WM-038-003-N.png","gun_16.png","",""
"","","sequential-priming","71","221793","0.0-3.0-68.0","-1","1492035703161","i","e","NO GUN","GUN","[""MaskReal.png"",""./HiCon/SHINEd_Hi_WM-001-0140-N.png"",""./GrayGuns/gun_15.png"",""MaskReal.png""]","high","gun","SHINEd_Hi_WM-001-0140-N.png","gun_15.png","",""
"","","sequential-priming","72","224707","0.0-3.0-69.0","-1","1492035703161","i","e","NO GUN","GUN","[""MaskReal.png"",""./HiCon/SHINEd_Hi_WM-251-002-N.png"",""./GrayGuns/gun_14.png"",""MaskReal.png""]","high","gun","SHINEd_Hi_WM-251-002-N.png","gun_14.png","",""
"","","sequential-priming","73","227620","0.0-3.0-70.0","-1","1492035703161","i","e","NO GUN","GUN","[""MaskReal.png"",""./HiCon/SHINEd_Hi_WM-205-007-N.png"",""./GrayNonguns/cell_4.png"",""MaskReal.png""]","high","nogun","SHINEd_Hi_WM-205-007-N.png","cell_4.png","",""
"","","sequential-priming","74","230534","0.0-3.0-71.0","-1","1492035703161","i","e","NO GUN","GUN","[""MaskReal.png"",""./HiCon/SHINEd_Hi_WM-017-002-N.png"",""./GrayGuns/gun_19.png"",""MaskReal.png""]","high","gun","SHINEd_Hi_WM-017-002-N.png","gun_19.png","",""
"","","sequential-priming","75","233450","0.0-3.0-72.0","-1","1492035703161","i","e","NO GUN","GUN","[""MaskReal.png"",""./HiCon/SHINEd_Hi_WM-242-011-N.png"",""./GrayGuns/gun_9.png"",""MaskReal.png""]","high","gun","SHINEd_Hi_WM-242-011-N.png","gun_9.png","",""
"","","sequential-priming","76","236361","0.0-3.0-73.0","-1","1492035703161","i","e","NO GUN","GUN","[""MaskReal.png"",""./HiCon/SHINEd_Hi_WM-257-161-N.png"",""./GrayGuns/gun_1.png"",""MaskReal.png""]","high","gun","SHINEd_Hi_WM-257-161-N.png","gun_1.png","",""
"","","sequential-priming","77","239274","0.0-3.0-74.0","-1","1492035703161","i","e","NO GUN","GUN","[""MaskReal.png"",""./HiCon/SHINEd_Hi_WM-252-224-N.png"",""./GrayGuns/gun_11.png"",""MaskReal.png""]","high","gun","SHINEd_Hi_WM-252-224-N.png","gun_11.png","",""
"918","73","sequential-priming","78","242598","0.0-3.0-75.0","-1","1492035703161","i","e","NO GUN","GUN","[""MaskReal.png"",""./LoCon/SHINEd_Lo_WM-243-107-N.png"",""./GrayGuns/gun_8.png"",""MaskReal.png""]","low","gun","SHINEd_Lo_WM-243-107-N.png","gun_8.png","1318","true"
"337","73","sequential-priming","79","245341","0.0-3.0-76.0","-1","1492035703161","i","e","NO GUN","GUN","[""MaskReal.png"",""./LoCon/SHINEd_Lo_WM-026-001-N.png"",""./GrayNonguns/wallet_1.png"",""MaskReal.png""]","low","nogun","SHINEd_Lo_WM-026-001-N.png","wallet_1.png","737","false"
"","","sequential-priming","80","248254","0.0-3.0-77.0","-1","1492035703161","i","e","NO GUN","GUN","[""MaskReal.png"",""./HiCon/SHINEd_Hi_WM-035-032-N.png"",""./GrayGuns/gun_4.png"",""MaskReal.png""]","high","gun","SHINEd_Hi_WM-035-032-N.png","gun_4.png","",""
"","","sequential-priming","81","251167","0.0-3.0-78.0","-1","1492035703161","i","e","NO GUN","GUN","[""MaskReal.png"",""./LoCon/SHINEd_Lo_WM-224-197-N.png"",""./GrayGuns/gun_6.png"",""MaskReal.png""]","low","gun","SHINEd_Lo_WM-224-197-N.png","gun_6.png","",""
"","","sequential-priming","82","254081","0.0-3.0-79.0","-1","1492035703161","i","e","NO GUN","GUN","[""MaskReal.png"",""./LoCon/SHINEd_Lo_WM-028-003-N.png"",""./GrayNonguns/wallet_5.png"",""MaskReal.png""]","low","nogun","SHINEd_Lo_WM-028-003-N.png","wallet_5.png","",""
"","","sequential-priming","83","256994","0.0-3.0-80.0","-1","1492035703161","i","e","NO GUN","GUN","[""MaskReal.png"",""./LoCon/SHINEd_Lo_WM-233-106-N.png"",""./GrayGuns/gun_13.png"",""MaskReal.png""]","low","gun","SHINEd_Lo_WM-233-106-N.png","gun_13.png","",""
"","","sequential-priming","84","259907","0.0-3.0-81.0","-1","1492035703161","i","e","NO GUN","GUN","[""MaskReal.png"",""./LoCon/SHINEd_Lo_WM-207-048-N.png"",""./GrayGuns/gun_2.png"",""MaskReal.png""]","low","gun","SHINEd_Lo_WM-207-048-N.png","gun_2.png","",""
"","","sequential-priming","85","262819","0.0-3.0-82.0","-1","1492035703161","i","e","NO GUN","GUN","[""MaskReal.png"",""./HiCon/SHINEd_Hi_WM-011-002-N.png"",""./GrayGuns/gun_7.png"",""MaskReal.png""]","high","gun","SHINEd_Hi_WM-011-002-N.png","gun_7.png","",""
"","","sequential-priming","86","265733","0.0-3.0-83.0","-1","1492035703161","i","e","NO GUN","GUN","[""MaskReal.png"",""./HiCon/SHINEd_Hi_WM-242-011-N.png"",""./GrayGuns/gun_3.png"",""MaskReal.png""]","high","gun","SHINEd_Hi_WM-242-011-N.png","gun_3.png","",""
"","","sequential-priming","87","268648","0.0-3.0-84.0","-1","1492035703161","i","e","NO GUN","GUN","[""MaskReal.png"",""./LoCon/SHINEd_Lo_WM-231-112-N.png"",""./GrayGuns/gun_17.png"",""MaskReal.png""]","low","gun","SHINEd_Lo_WM-231-112-N.png","gun_17.png","",""
"","","sequential-priming","88","271560","0.0-3.0-85.0","-1","1492035703161","i","e","NO GUN","GUN","[""MaskReal.png"",""./LoCon/SHINEd_Lo_WM-026-001-N.png"",""./GrayGuns/gun_1.png"",""MaskReal.png""]","low","gun","SHINEd_Lo_WM-026-001-N.png","gun_1.png","",""
"","","sequential-priming","89","274472","0.0-3.0-86.0","-1","1492035703161","i","e","NO GUN","GUN","[""MaskReal.png"",""./LoCon/SHINEd_Lo_WM-238-020-N.png"",""./GrayGuns/gun_9.png"",""MaskReal.png""]","low","gun","SHINEd_Lo_WM-238-020-N.png","gun_9.png","",""
"","","sequential-priming","90","277384","0.0-3.0-87.0","-1","1492035703161","i","e","NO GUN","GUN","[""MaskReal.png"",""./LoCon/SHINEd_Lo_WM-225-127-N.png"",""./GrayGuns/gun_8.png"",""MaskReal.png""]","low","gun","SHINEd_Lo_WM-225-127-N.png","gun_8.png","",""
"","","sequential-priming","91","280297","0.0-3.0-88.0","-1","1492035703161","i","e","NO GUN","GUN","[""MaskReal.png"",""./LoCon/SHINEd_Lo_WM-205-007-N.png"",""./GrayNonguns/wallet_3.png"",""MaskReal.png""]","low","nogun","SHINEd_Lo_WM-205-007-N.png","wallet_3.png","",""
"","","sequential-priming","92","283211","0.0-3.0-89.0","-1","1492035703161","i","e","NO GUN","GUN","[""MaskReal.png"",""./LoCon/SHINEd_Lo_WM-015-002-N*.png"",""./GrayGuns/gun_19.png"",""MaskReal.png""]","low","gun","SHINEd_Lo_WM-015-002-N*.png","gun_19.png","",""
"","","sequential-priming","93","286124","0.0-3.0-90.0","-1","1492035703161","i","e","NO GUN","GUN","[""MaskReal.png"",""./HiCon/SHINEd_Hi_WM-040-022-N.png"",""./GrayGuns/gun_1.png"",""MaskReal.png""]","high","gun","SHINEd_Hi_WM-040-022-N.png","gun_1.png","",""
"","","sequential-priming","94","289038","0.0-3.0-91.0","-1","1492035703161","i","e","NO GUN","GUN","[""MaskReal.png"",""./HiCon/SHINEd_Hi_WM-033-025-N.png"",""./GrayGuns/gun_19.png"",""MaskReal.png""]","high","gun","SHINEd_Hi_WM-033-025-N.png","gun_19.png","",""
"","","sequential-priming","95","291949","0.0-3.0-92.0","-1","1492035703161","i","e","NO GUN","GUN","[""MaskReal.png"",""./LoCon/SHINEd_Lo_WM-006-002-N.png"",""./GrayGuns/gun_19.png"",""MaskReal.png""]","low","gun","SHINEd_Lo_WM-006-002-N.png","gun_19.png","",""
"","","sequential-priming","96","294859","0.0-3.0-93.0","-1","1492035703161","i","e","NO GUN","GUN","[""MaskReal.png"",""./LoCon/SHINEd_Lo_WM-011-002-N.png"",""./GrayNonguns/tool_4.png"",""MaskReal.png""]","low","nogun","SHINEd_Lo_WM-011-002-N.png","tool_4.png","",""
"","","sequential-priming","97","297770","0.0-3.0-94.0","-1","1492035703161","i","e","NO GUN","GUN","[""MaskReal.png"",""./HiCon/SHINEd_Hi_WM-232-070-N.png"",""./GrayNonguns/tool_3.png"",""MaskReal.png""]","high","nogun","SHINEd_Hi_WM-232-070-N.png","tool_3.png","",""
"","","sequential-priming","98","300680","0.0-3.0-95.0","-1","1492035703161","i","e","NO GUN","GUN","[""MaskReal.png"",""./LoCon/SHINEd_Lo_WM-251-002-N.png"",""./GrayGuns/gun_17.png"",""MaskReal.png""]","low","gun","SHINEd_Lo_WM-251-002-N.png","gun_17.png","",""
"","","sequential-priming","99","303590","0.0-3.0-96.0","-1","1492035703161","i","e","NO GUN","GUN","[""MaskReal.png"",""./HiCon/SHINEd_Hi_WM-028-003-N.png"",""./GrayGuns/gun_20.png"",""MaskReal.png""]","high","gun","SHINEd_Hi_WM-028-003-N.png","gun_20.png","",""
"","","sequential-priming","100","306501","0.0-3.0-97.0","-1","1492035703161","i","e","NO GUN","GUN","[""MaskReal.png"",""./LoCon/SHINEd_Lo_WM-006-002-N.png"",""./GrayGuns/gun_13.png"",""MaskReal.png""]","low","gun","SHINEd_Lo_WM-006-002-N.png","gun_13.png","",""
"","","sequential-priming","101","309411","0.0-3.0-98.0","-1","1492035703161","i","e","NO GUN","GUN","[""MaskReal.png"",""./HiCon/SHINEd_Hi_WM-039-018-N.png"",""./GrayNonguns/wallet_6.png"",""MaskReal.png""]","high","nogun","SHINEd_Hi_WM-039-018-N.png","wallet_6.png","",""
"","","sequential-priming","102","312322","0.0-3.0-99.0","-1","1492035703161","i","e","NO GUN","GUN","[""MaskReal.png"",""./HiCon/SHINEd_Hi_WM-230-131-N.png"",""./GrayGuns/gun_11.png"",""MaskReal.png""]","high","gun","SHINEd_Hi_WM-230-131-N.png","gun_11.png","",""
"","","sequential-priming","103","315230","0.0-3.0-100.0","-1","1492035703161","i","e","NO GUN","GUN","[""MaskReal.png"",""./LoCon/SHINEd_Lo_WM-230-131-N.png"",""./GrayGuns/gun_10.png"",""MaskReal.png""]","low","gun","SHINEd_Lo_WM-230-131-N.png","gun_10.png","",""
"","","sequential-priming","104","318141","0.0-3.0-101.0","-1","1492035703161","i","e","NO GUN","GUN","[""MaskReal.png"",""./HiCon/SHINEd_Hi_WM-253-119-N.png"",""./GrayGuns/gun_13.png"",""MaskReal.png""]","high","gun","SHINEd_Hi_WM-253-119-N.png","gun_13.png","",""
"","","sequential-priming","105","321053","0.0-3.0-102.0","-1","1492035703161","i","e","NO GUN","GUN","[""MaskReal.png"",""./HiCon/SHINEd_Hi_WM-213-076-N.png"",""./GrayNonguns/wallet_1.png"",""MaskReal.png""]","high","nogun","SHINEd_Hi_WM-213-076-N.png","wallet_1.png","",""
"","","sequential-priming","106","323962","0.0-3.0-103.0","-1","1492035703161","i","e","NO GUN","GUN","[""MaskReal.png"",""./LoCon/SHINEd_Lo_WM-212-097-N.png"",""./GrayGuns/gun_18.png"",""MaskReal.png""]","low","gun","SHINEd_Lo_WM-212-097-N.png","gun_18.png","",""
"","","sequential-priming","107","326874","0.0-3.0-104.0","-1","1492035703161","i","e","NO GUN","GUN","[""MaskReal.png"",""./LoCon/SHINEd_Lo_WM-207-048-N.png"",""./GrayGuns/gun_9.png"",""MaskReal.png""]","low","gun","SHINEd_Lo_WM-207-048-N.png","gun_9.png","",""
"","","sequential-priming","108","329788","0.0-3.0-105.0","-1","1492035703161","i","e","NO GUN","GUN","[""MaskReal.png"",""./LoCon/SHINEd_Lo_WM-031-003-N.png"",""./GrayNonguns/keys_5.png"",""MaskReal.png""]","low","nogun","SHINEd_Lo_WM-031-003-N.png","keys_5.png","",""
"","","sequential-priming","109","332704","0.0-3.0-106.0","-1","1492035703161","i","e","NO GUN","GUN","[""MaskReal.png"",""./HiCon/SHINEd_Hi_WM-015-002-N*.png"",""./GrayGuns/gun_20.png"",""MaskReal.png""]","high","gun","SHINEd_Hi_WM-015-002-N*.png","gun_20.png","",""
"","","sequential-priming","110","335614","0.0-3.0-107.0","-1","1492035703161","i","e","NO GUN","GUN","[""MaskReal.png"",""./LoCon/SHINEd_Lo_WM-036-031-N.png"",""./GrayGuns/gun_19.png"",""MaskReal.png""]","low","gun","SHINEd_Lo_WM-036-031-N.png","gun_19.png","",""
"","","sequential-priming","111","338526","0.0-3.0-108.0","-1","1492035703161","i","e","NO GUN","GUN","[""MaskReal.png"",""./LoCon/SHINEd_Lo_WM-238-020-N.png"",""./GrayNonguns/keys_8.png"",""MaskReal.png""]","low","nogun","SHINEd_Lo_WM-238-020-N.png","keys_8.png","",""
"","","sequential-priming","112","341441","0.0-3.0-109.0","-1","1492035703161","i","e","NO GUN","GUN","[""MaskReal.png"",""./LoCon/SHINEd_Lo_WM-232-070-N.png"",""./GrayGuns/gun_8.png"",""MaskReal.png""]","low","gun","SHINEd_Lo_WM-232-070-N.png","gun_8.png","",""
"","","sequential-priming","113","344351","0.0-3.0-110.0","-1","1492035703161","i","e","NO GUN","GUN","[""MaskReal.png"",""./HiCon/SHINEd_Hi_WM-257-161-N.png"",""./GrayGuns/gun_16.png"",""MaskReal.png""]","high","gun","SHINEd_Hi_WM-257-161-N.png","gun_16.png","",""
"","","sequential-priming","114","347263","0.0-3.0-111.0","-1","1492035703161","i","e","NO GUN","GUN","[""MaskReal.png"",""./LoCon/SHINEd_Lo_WM-012-001-N.png"",""./GrayGuns/gun_14.png"",""MaskReal.png""]","low","gun","SHINEd_Lo_WM-012-001-N.png","gun_14.png","",""
"","","sequential-priming","115","350172","0.0-3.0-112.0","-1","1492035703161","i","e","NO GUN","GUN","[""MaskReal.png"",""./LoCon/SHINEd_Lo_WM-033-025-N.png"",""./GrayGuns/gun_11.png"",""MaskReal.png""]","low","gun","SHINEd_Lo_WM-033-025-N.png","gun_11.png","",""
"","","sequential-priming","116","353082","0.0-3.0-113.0","-1","1492035703161","i","e","NO GUN","GUN","[""MaskReal.png"",""./HiCon/SHINEd_Hi_WM-039-018-N.png"",""./GrayNonguns/tool_7.png"",""MaskReal.png""]","high","nogun","SHINEd_Hi_WM-039-018-N.png","tool_7.png","",""
"","","sequential-priming","117","355993","0.0-3.0-114.0","-1","1492035703161","i","e","NO GUN","GUN","[""MaskReal.png"",""./HiCon/SHINEd_Hi_WM-250-157-N.png"",""./GrayGuns/gun_7.png"",""MaskReal.png""]","high","gun","SHINEd_Hi_WM-250-157-N.png","gun_7.png","",""
"","","sequential-priming","118","358902","0.0-3.0-115.0","-1","1492035703161","i","e","NO GUN","GUN","[""MaskReal.png"",""./LoCon/SHINEd_Lo_WM-254-152-N.png"",""./GrayNonguns/tool_6.png"",""MaskReal.png""]","low","nogun","SHINEd_Lo_WM-254-152-N.png","tool_6.png","",""
"","","sequential-priming","119","361810","0.0-3.0-116.0","-1","1492035703161","i","e","NO GUN","GUN","[""MaskReal.png"",""./HiCon/SHINEd_Hi_WM-038-003-N.png"",""./GrayNonguns/keys_7.png"",""MaskReal.png""]","high","nogun","SHINEd_Hi_WM-038-003-N.png","keys_7.png","",""
"","","sequential-priming","120","364717","0.0-3.0-117.0","-1","1492035703161","i","e","NO GUN","GUN","[""MaskReal.png"",""./HiCon/SHINEd_Hi_WM-002-009-N.png"",""./GrayNonguns/cell_1.png"",""MaskReal.png""]","high","nogun","SHINEd_Hi_WM-002-009-N.png","cell_1.png","",""
"","","sequential-priming","121","367627","0.0-3.0-118.0","-1","1492035703161","i","e","NO GUN","GUN","[""MaskReal.png"",""./HiCon/SHINEd_Hi_WM-233-106-N.png"",""./GrayNonguns/keys_6.png"",""MaskReal.png""]","high","nogun","SHINEd_Hi_WM-233-106-N.png","keys_6.png","",""
"","","sequential-priming","122","370536","0.0-3.0-119.0","-1","1492035703161","i","e","NO GUN","GUN","[""MaskReal.png"",""./HiCon/SHINEd_Hi_WM-032-001-N.png"",""./GrayGuns/gun_15.png"",""MaskReal.png""]","high","gun","SHINEd_Hi_WM-032-001-N.png","gun_15.png","",""
"","","sequential-priming","123","373444","0.0-3.0-120.0","-1","1492035703161","i","e","NO GUN","GUN","[""MaskReal.png"",""./LoCon/SHINEd_Lo_WM-014-002-N*.png"",""./GrayGuns/gun_9.png"",""MaskReal.png""]","low","gun","SHINEd_Lo_WM-014-002-N*.png","gun_9.png","",""
"","","sequential-priming","124","376352","0.0-3.0-121.0","-1","1492035703161","i","e","NO GUN","GUN","[""MaskReal.png"",""./HiCon/SHINEd_Hi_WM-019-003-N.png"",""./GrayNonguns/cell_4.png"",""MaskReal.png""]","high","nogun","SHINEd_Hi_WM-019-003-N.png","cell_4.png","",""
"","","sequential-priming","125","379262","0.0-3.0-122.0","-1","1492035703161","i","e","NO GUN","GUN","[""MaskReal.png"",""./HiCon/SHINEd_Hi_WM-224-197-N.png"",""./GrayNonguns/tool_3.png"",""MaskReal.png""]","high","nogun","SHINEd_Hi_WM-224-197-N.png","tool_3.png","",""
"","","sequential-priming","126","382171","0.0-3.0-123.0","-1","1492035703161","i","e","NO GUN","GUN","[""MaskReal.png"",""./HiCon/SHINEd_Hi_WM-019-003-N.png"",""./GrayNonguns/keys_8.png"",""MaskReal.png""]","high","nogun","SHINEd_Hi_WM-019-003-N.png","keys_8.png","",""
"","","sequential-priming","127","385079","0.0-3.0-124.0","-1","1492035703161","i","e","NO GUN","GUN","[""MaskReal.png"",""./HiCon/SHINEd_Hi_WM-014-002-N*.png"",""./GrayGuns/gun_20.png"",""MaskReal.png""]","high","gun","SHINEd_Hi_WM-014-002-N*.png","gun_20.png","",""
"","","sequential-priming","128","387985","0.0-3.0-125.0","-1","1492035703161","i","e","NO GUN","GUN","[""MaskReal.png"",""./HiCon/SHINEd_Hi_WM-232-070-N.png"",""./GrayNonguns/cell_3.png"",""MaskReal.png""]","high","nogun","SHINEd_Hi_WM-232-070-N.png","cell_3.png","",""
"","","sequential-priming","129","390896","0.0-3.0-126.0","-1","1492035703161","i","e","NO GUN","GUN","[""MaskReal.png"",""./HiCon/SHINEd_Hi_WM-034-030-N.png"",""./GrayGuns/gun_13.png"",""MaskReal.png""]","high","gun","SHINEd_Hi_WM-034-030-N.png","gun_13.png","",""
"","","sequential-priming","130","393806","0.0-3.0-127.0","-1","1492035703161","i","e","NO GUN","GUN","[""MaskReal.png"",""./HiCon/SHINEd_Hi_WM-208-068-N.png"",""./GrayGuns/gun_15.png"",""MaskReal.png""]","high","gun","SHINEd_Hi_WM-208-068-N.png","gun_15.png","",""
"","","sequential-priming","131","396717","0.0-3.0-128.0","-1","1492035703161","i","e","NO GUN","GUN","[""MaskReal.png"",""./LoCon/SHINEd_Lo_WM-224-197-N.png"",""./GrayGuns/gun_20.png"",""MaskReal.png""]","low","gun","SHINEd_Lo_WM-224-197-N.png","gun_20.png","",""
"","","sequential-priming","132","399626","0.0-3.0-129.0","-1","1492035703161","i","e","NO GUN","GUN","[""MaskReal.png"",""./HiCon/SHINEd_Hi_WM-206-045-N.png"",""./GrayNonguns/keys_3.png"",""MaskReal.png""]","high","nogun","SHINEd_Hi_WM-206-045-N.png","keys_3.png","",""
"177","73","sequential-priming","133","402208","0.0-3.0-130.0","-1","1492035703161","i","e","NO GUN","GUN","[""MaskReal.png"",""./HiCon/SHINEd_Hi_WM-010-001-N.png"",""./GrayGuns/gun_7.png"",""MaskReal.png""]","high","gun","SHINEd_Hi_WM-010-001-N.png","gun_7.png","577","true"
"","","sequential-priming","134","405116","0.0-3.0-131.0","-1","1492035703161","i","e","NO GUN","GUN","[""MaskReal.png"",""./LoCon/SHINEd_Lo_WM-252-224-N.png"",""./GrayGuns/gun_18.png"",""MaskReal.png""]","low","gun","SHINEd_Lo_WM-252-224-N.png","gun_18.png","",""
"799","73","sequential-priming","135","408320","0.0-3.0-132.0","-1","1492035703161","i","e","NO GUN","GUN","[""MaskReal.png"",""./LoCon/SHINEd_Lo_WM-040-022-N.png"",""./GrayNonguns/keys_1.png"",""MaskReal.png""]","low","nogun","SHINEd_Lo_WM-040-022-N.png","keys_1.png","1199","false"
"","","sequential-priming","136","411230","0.0-3.0-133.0","-1","1492035703161","i","e","NO GUN","GUN","[""MaskReal.png"",""./LoCon/SHINEd_Lo_WM-251-002-N.png"",""./GrayNonguns/cell_2.png"",""MaskReal.png""]","low","nogun","SHINEd_Lo_WM-251-002-N.png","cell_2.png","",""
"","","sequential-priming","137","414140","0.0-3.0-134.0","-1","1492035703161","i","e","NO GUN","GUN","[""MaskReal.png"",""./LoCon/SHINEd_Lo_WM-015-002-N*.png"",""./GrayGuns/gun_17.png"",""MaskReal.png""]","low","gun","SHINEd_Lo_WM-015-002-N*.png","gun_17.png","",""
"","","sequential-priming","138","417051","0.0-3.0-135.0","-1","1492035703161","i","e","NO GUN","GUN","[""MaskReal.png"",""./LoCon/SHINEd_Lo_WM-225-127-N.png"",""./GrayNonguns/cell_5.png"",""MaskReal.png""]","low","nogun","SHINEd_Lo_WM-225-127-N.png","cell_5.png","",""
"","","sequential-priming","139","419963","0.0-3.0-136.0","-1","1492035703161","i","e","NO GUN","GUN","[""MaskReal.png"",""./HiCon/SHINEd_Hi_WM-037-025-N.png"",""./GrayNonguns/tool_1.png"",""MaskReal.png""]","high","nogun","SHINEd_Hi_WM-037-025-N.png","tool_1.png","",""
"","","sequential-priming","140","422901","0.0-3.0-137.0","-1","1492035703161","i","e","NO GUN","GUN","[""MaskReal.png"",""./HiCon/SHINEd_Hi_WM-225-127-N.png"",""./GrayGuns/gun_8.png"",""MaskReal.png""]","high","gun","SHINEd_Hi_WM-225-127-N.png","gun_8.png","",""
"","","sequential-priming","141","425816","0.0-3.0-138.0","-1","1492035703161","i","e","NO GUN","GUN","[""MaskReal.png"",""./HiCon/SHINEd_Hi_WM-258-125-N.png"",""./GrayNonguns/keys_5.png"",""MaskReal.png""]","high","nogun","SHINEd_Hi_WM-258-125-N.png","keys_5.png","",""
"","","sequential-priming","142","428728","0.0-3.0-139.0","-1","1492035703161","i","e","NO GUN","GUN","[""MaskReal.png"",""./LoCon/SHINEd_Lo_WM-253-119-N.png"",""./GrayGuns/gun_5.png"",""MaskReal.png""]","low","gun","SHINEd_Lo_WM-253-119-N.png","gun_5.png","",""
"","","sequential-priming","143","431646","0.0-3.0-140.0","-1","1492035703161","i","e","NO GUN","GUN","[""MaskReal.png"",""./LoCon/SHINEd_Lo_WM-250-157-N.png"",""./GrayGuns/gun_12.png"",""MaskReal.png""]","low","gun","SHINEd_Lo_WM-250-157-N.png","gun_12.png","",""
"","","sequential-priming","144","434562","0.0-3.0-141.0","-1","1492035703161","i","e","NO GUN","GUN","[""MaskReal.png"",""./HiCon/SHINEd_Hi_WM-230-131-N.png"",""./GrayNonguns/tool_2.png"",""MaskReal.png""]","high","nogun","SHINEd_Hi_WM-230-131-N.png","tool_2.png","",""
"","","sequential-priming","145","437479","0.0-3.0-142.0","-1","1492035703161","i","e","NO GUN","GUN","[""MaskReal.png"",""./HiCon/SHINEd_Hi_WM-231-112-N.png"",""./GrayNonguns/tool_8.png"",""MaskReal.png""]","high","nogun","SHINEd_Hi_WM-231-112-N.png","tool_8.png","",""
"","","sequential-priming","146","440393","0.0-3.0-143.0","-1","1492035703161","i","e","NO GUN","GUN","[""MaskReal.png"",""./LoCon/SHINEd_Lo_WM-009-002-N.png"",""./GrayGuns/gun_12.png"",""MaskReal.png""]","low","gun","SHINEd_Lo_WM-009-002-N.png","gun_12.png","",""
"","","sequential-priming","147","443308","0.0-3.0-144.0","-1","1492035703161","i","e","NO GUN","GUN","[""MaskReal.png"",""./HiCon/SHINEd_Hi_WM-009-002-N.png"",""./GrayNonguns/keys_4.png"",""MaskReal.png""]","high","nogun","SHINEd_Hi_WM-009-002-N.png","keys_4.png","",""
"","","sequential-priming","148","446223","0.0-3.0-145.0","-1","1492035703161","i","e","NO GUN","GUN","[""MaskReal.png"",""./HiCon/SHINEd_Hi_WM-238-020-N.png"",""./GrayGuns/gun_17.png"",""MaskReal.png""]","high","gun","SHINEd_Hi_WM-238-020-N.png","gun_17.png","",""
"","","sequential-priming","149","449135","0.0-3.0-146.0","-1","1492035703161","i","e","NO GUN","GUN","[""MaskReal.png"",""./LoCon/SHINEd_Lo_WM-034-030-N.png"",""./GrayGuns/gun_15.png"",""MaskReal.png""]","low","gun","SHINEd_Lo_WM-034-030-N.png","gun_15.png","",""
"","","sequential-priming","150","452049","0.0-3.0-147.0","-1","1492035703161","i","e","NO GUN","GUN","[""MaskReal.png"",""./LoCon/SHINEd_Lo_WM-206-045-N.png"",""./GrayNonguns/wallet_7.png"",""MaskReal.png""]","low","nogun","SHINEd_Lo_WM-206-045-N.png","wallet_7.png","",""
"","","sequential-priming","151","454964","0.0-3.0-148.0","-1","1492035703161","i","e","NO GUN","GUN","[""MaskReal.png"",""./HiCon/SHINEd_Hi_WM-036-031-N.png"",""./GrayNonguns/cell_6.png"",""MaskReal.png""]","high","nogun","SHINEd_Hi_WM-036-031-N.png","cell_6.png","",""
"","","sequential-priming","152","457882","0.0-3.0-149.0","-1","1492035703161","i","e","NO GUN","GUN","[""MaskReal.png"",""./LoCon/SHINEd_Lo_WM-220-068-N.png"",""./GrayGuns/gun_6.png"",""MaskReal.png""]","low","gun","SHINEd_Lo_WM-220-068-N.png","gun_6.png","",""
"","","sequential-priming","153","460802","0.0-3.0-150.0","-1","1492035703161","i","e","NO GUN","GUN","[""MaskReal.png"",""./HiCon/SHINEd_Hi_WM-218-074-N.png"",""./GrayGuns/gun_14.png"",""MaskReal.png""]","high","gun","SHINEd_Hi_WM-218-074-N.png","gun_14.png","",""
"","","sequential-priming","154","463720","0.0-3.0-151.0","-1","1492035703161","i","e","NO GUN","GUN","[""MaskReal.png"",""./LoCon/SHINEd_Lo_WM-258-125-N.png"",""./GrayNonguns/keys_8.png"",""MaskReal.png""]","low","nogun","SHINEd_Lo_WM-258-125-N.png","keys_8.png","",""
"","","sequential-priming","155","466637","0.0-3.0-152.0","-1","1492035703161","i","e","NO GUN","GUN","[""MaskReal.png"",""./HiCon/SHINEd_Hi_WM-218-074-N.png"",""./GrayNonguns/wallet_4.png"",""MaskReal.png""]","high","nogun","SHINEd_Hi_WM-218-074-N.png","wallet_4.png","",""
"","","sequential-priming","156","469554","0.0-3.0-153.0","-1","1492035703161","i","e","NO GUN","GUN","[""MaskReal.png"",""./HiCon/SHINEd_Hi_WM-017-002-N.png"",""./GrayNonguns/keys_7.png"",""MaskReal.png""]","high","nogun","SHINEd_Hi_WM-017-002-N.png","keys_7.png","",""
"","","sequential-priming","157","472470","0.0-3.0-154.0","-1","1492035703161","i","e","NO GUN","GUN","[""MaskReal.png"",""./HiCon/SHINEd_Hi_WM-222-057-N.png"",""./GrayNonguns/keys_5.png"",""MaskReal.png""]","high","nogun","SHINEd_Hi_WM-222-057-N.png","keys_5.png","",""
"","","sequential-priming","158","475383","0.0-3.0-155.0","-1","1492035703161","i","e","NO GUN","GUN","[""MaskReal.png"",""./LoCon/SHINEd_Lo_WM-218-074-N.png"",""./GrayNonguns/cell_2.png"",""MaskReal.png""]","low","nogun","SHINEd_Lo_WM-218-074-N.png","cell_2.png","",""
"","","sequential-priming","159","478298","0.0-3.0-156.0","-1","1492035703161","i","e","NO GUN","GUN","[""MaskReal.png"",""./LoCon/SHINEd_Lo_WM-254-152-N.png"",""./GrayNonguns/tool_2.png"",""MaskReal.png""]","low","nogun","SHINEd_Lo_WM-254-152-N.png","tool_2.png","",""
"","","sequential-priming","160","481212","0.0-3.0-157.0","-1","1492035703161","i","e","NO GUN","GUN","[""MaskReal.png"",""./HiCon/SHINEd_Hi_WM-207-048-N.png"",""./GrayGuns/gun_12.png"",""MaskReal.png""]","high","gun","SHINEd_Hi_WM-207-048-N.png","gun_12.png","",""
"","","sequential-priming","161","484141","0.0-3.0-158.0","-1","1492035703161","i","e","NO GUN","GUN","[""MaskReal.png"",""./HiCon/SHINEd_Hi_WM-004-010-N.png"",""./GrayNonguns/wallet_2.png"",""MaskReal.png""]","high","nogun","SHINEd_Hi_WM-004-010-N.png","wallet_2.png","",""
"","","sequential-priming","162","487059","0.0-3.0-159.0","-1","1492035703161","i","e","NO GUN","GUN","[""MaskReal.png"",""./HiCon/SHINEd_Hi_WM-212-097-N.png"",""./GrayNonguns/cell_6.png"",""MaskReal.png""]","high","nogun","SHINEd_Hi_WM-212-097-N.png","cell_6.png","",""
"","","sequential-priming","163","489980","0.0-3.0-160.0","-1","1492035703161","i","e","NO GUN","GUN","[""MaskReal.png"",""./HiCon/SHINEd_Hi_WM-206-045-N.png"",""./GrayNonguns/cell_5.png"",""MaskReal.png""]","high","nogun","SHINEd_Hi_WM-206-045-N.png","cell_5.png","",""
"","","sequential-priming","164","492897","0.0-3.0-161.0","-1","1492035703161","i","e","NO GUN","GUN","[""MaskReal.png"",""./HiCon/SHINEd_Hi_WM-036-031-N.png"",""./GrayNonguns/tool_4.png"",""MaskReal.png""]","high","nogun","SHINEd_Hi_WM-036-031-N.png","tool_4.png","",""
"","","sequential-priming","165","495808","0.0-3.0-162.0","-1","1492035703161","i","e","NO GUN","GUN","[""MaskReal.png"",""./HiCon/SHINEd_Hi_WM-029-023-N.png"",""./GrayNonguns/wallet_1.png"",""MaskReal.png""]","high","nogun","SHINEd_Hi_WM-029-023-N.png","wallet_1.png","",""
"","","sequential-priming","166","498719","0.0-3.0-163.0","-1","1492035703161","i","e","NO GUN","GUN","[""MaskReal.png"",""./HiCon/SHINEd_Hi_WM-004-010-N.png"",""./GrayGuns/gun_6.png"",""MaskReal.png""]","high","gun","SHINEd_Hi_WM-004-010-N.png","gun_6.png","",""
"","","sequential-priming","167","501630","0.0-3.0-164.0","-1","1492035703161","i","e","NO GUN","GUN","[""MaskReal.png"",""./LoCon/SHINEd_Lo_WM-220-068-N.png"",""./GrayGuns/gun_2.png"",""MaskReal.png""]","low","gun","SHINEd_Lo_WM-220-068-N.png","gun_2.png","",""
"","","sequential-priming","168","504547","0.0-3.0-165.0","-1","1492035703161","i","e","NO GUN","GUN","[""MaskReal.png"",""./LoCon/SHINEd_Lo_WM-206-045-N.png"",""./GrayGuns/gun_15.png"",""MaskReal.png""]","low","gun","SHINEd_Lo_WM-206-045-N.png","gun_15.png","",""
"","","sequential-priming","169","507467","0.0-3.0-166.0","-1","1492035703161","i","e","NO GUN","GUN","[""MaskReal.png"",""./LoCon/SHINEd_Lo_WM-031-003-N.png"",""./GrayNonguns/keys_2.png"",""MaskReal.png""]","low","nogun","SHINEd_Lo_WM-031-003-N.png","keys_2.png","",""
"","","sequential-priming","170","510382","0.0-3.0-167.0","-1","1492035703161","i","e","NO GUN","GUN","[""MaskReal.png"",""./LoCon/SHINEd_Lo_WM-208-068-N.png"",""./GrayNonguns/cell_8.png"",""MaskReal.png""]","low","nogun","SHINEd_Lo_WM-208-068-N.png","cell_8.png","",""
"","","sequential-priming","171","513298","0.0-3.0-168.0","-1","1492035703161","i","e","NO GUN","GUN","[""MaskReal.png"",""./LoCon/SHINEd_Lo_WM-253-119-N.png"",""./GrayGuns/gun_17.png"",""MaskReal.png""]","low","gun","SHINEd_Lo_WM-253-119-N.png","gun_17.png","",""
"","","sequential-priming","172","516213","0.0-3.0-169.0","-1","1492035703161","i","e","NO GUN","GUN","[""MaskReal.png"",""./HiCon/SHINEd_Hi_WM-003-002-N.png"",""./GrayGuns/gun_5.png"",""MaskReal.png""]","high","gun","SHINEd_Hi_WM-003-002-N.png","gun_5.png","",""
"","","sequential-priming","173","519126","0.0-3.0-170.0","-1","1492035703161","i","e","NO GUN","GUN","[""MaskReal.png"",""./HiCon/SHINEd_Hi_WM-037-025-N.png"",""./GrayNonguns/keys_7.png"",""MaskReal.png""]","high","nogun","SHINEd_Hi_WM-037-025-N.png","keys_7.png","",""
"","","sequential-priming","174","522044","0.0-3.0-171.0","-1","1492035703161","i","e","NO GUN","GUN","[""MaskReal.png"",""./LoCon/SHINEd_Lo_WM-256-138-N.png"",""./GrayGuns/gun_1.png"",""MaskReal.png""]","low","gun","SHINEd_Lo_WM-256-138-N.png","gun_1.png","",""
"","","sequential-priming","175","524963","0.0-3.0-172.0","-1","1492035703161","i","e","NO GUN","GUN","[""MaskReal.png"",""./LoCon/SHINEd_Lo_WM-017-002-N.png"",""./GrayNonguns/cell_3.png"",""MaskReal.png""]","low","nogun","SHINEd_Lo_WM-017-002-N.png","cell_3.png","",""
"","","sequential-priming","176","527874","0.0-3.0-173.0","-1","1492035703161","i","e","NO GUN","GUN","[""MaskReal.png"",""./LoCon/SHINEd_Lo_WM-017-002-N.png"",""./GrayGuns/gun_8.png"",""MaskReal.png""]","low","gun","SHINEd_Lo_WM-017-002-N.png","gun_8.png","",""
"","","sequential-priming","177","530791","0.0-3.0-174.0","-1","1492035703161","i","e","NO GUN","GUN","[""MaskReal.png"",""./HiCon/SHINEd_Hi_WM-035-032-N.png"",""./GrayGuns/gun_9.png"",""MaskReal.png""]","high","gun","SHINEd_Hi_WM-035-032-N.png","gun_9.png","",""
"","","sequential-priming","178","533705","0.0-3.0-175.0","-1","1492035703161","i","e","NO GUN","GUN","[""MaskReal.png"",""./HiCon/SHINEd_Hi_WM-213-076-N.png"",""./GrayNonguns/tool_1.png"",""MaskReal.png""]","high","nogun","SHINEd_Hi_WM-213-076-N.png","tool_1.png","",""
"","","sequential-priming","179","536619","0.0-3.0-176.0","-1","1492035703161","i","e","NO GUN","GUN","[""MaskReal.png"",""./HiCon/SHINEd_Hi_WM-208-068-N.png"",""./GrayGuns/gun_14.png"",""MaskReal.png""]","high","gun","SHINEd_Hi_WM-208-068-N.png","gun_14.png","",""
"","","sequential-priming","180","539534","0.0-3.0-177.0","-1","1492035703161","i","e","NO GUN","GUN","[""MaskReal.png"",""./LoCon/SHINEd_Lo_WM-029-023-N.png"",""./GrayNonguns/cell_6.png"",""MaskReal.png""]","low","nogun","SHINEd_Lo_WM-029-023-N.png","cell_6.png","",""
"","","sequential-priming","181","542450","0.0-3.0-178.0","-1","1492035703161","i","e","NO GUN","GUN","[""MaskReal.png"",""./HiCon/SHINEd_Hi_WM-254-152-N.png"",""./GrayGuns/gun_18.png"",""MaskReal.png""]","high","gun","SHINEd_Hi_WM-254-152-N.png","gun_18.png","",""
"","","sequential-priming","182","545364","0.0-3.0-179.0","-1","1492035703161","i","e","NO GUN","GUN","[""MaskReal.png"",""./HiCon/SHINEd_Hi_WM-031-003-N.png"",""./GrayNonguns/wallet_3.png"",""MaskReal.png""]","high","nogun","SHINEd_Hi_WM-031-003-N.png","wallet_3.png","",""
"","","sequential-priming","183","548278","0.0-3.0-180.0","-1","1492035703161","i","e","NO GUN","GUN","[""MaskReal.png"",""./HiCon/SHINEd_Hi_WM-233-106-N.png"",""./GrayGuns/gun_14.png"",""MaskReal.png""]","high","gun","SHINEd_Hi_WM-233-106-N.png","gun_14.png","",""
"","","sequential-priming","184","551192","0.0-3.0-181.0","-1","1492035703161","i","e","NO GUN","GUN","[""MaskReal.png"",""./LoCon/SHINEd_Lo_WM-242-011-N.png"",""./GrayNonguns/keys_1.png"",""MaskReal.png""]","low","nogun","SHINEd_Lo_WM-242-011-N.png","keys_1.png","",""
"","","sequential-priming","185","554104","0.0-3.0-182.0","-1","1492035703161","i","e","NO GUN","GUN","[""MaskReal.png"",""./HiCon/SHINEd_Hi_WM-220-068-N.png"",""./GrayNonguns/tool_1.png"",""MaskReal.png""]","high","nogun","SHINEd_Hi_WM-220-068-N.png","tool_1.png","",""
"","","sequential-priming","186","557024","0.0-3.0-183.0","-1","1492035703161","i","e","NO GUN","GUN","[""MaskReal.png"",""./LoCon/SHINEd_Lo_WM-258-125-N.png"",""./GrayNonguns/tool_5.png"",""MaskReal.png""]","low","nogun","SHINEd_Lo_WM-258-125-N.png","tool_5.png","",""
"","","sequential-priming","187","559942","0.0-3.0-184.0","-1","1492035703161","i","e","NO GUN","GUN","[""MaskReal.png"",""./LoCon/SHINEd_Lo_WM-205-007-N.png"",""./GrayGuns/gun_4.png"",""MaskReal.png""]","low","gun","SHINEd_Lo_WM-205-007-N.png","gun_4.png","",""
"","","sequential-priming","188","562856","0.0-3.0-185.0","-1","1492035703161","i","e","NO GUN","GUN","[""MaskReal.png"",""./HiCon/SHINEd_Hi_WM-212-097-N.png"",""./GrayNonguns/cell_1.png"",""MaskReal.png""]","high","nogun","SHINEd_Hi_WM-212-097-N.png","cell_1.png","",""
"","","sequential-priming","189","565774","0.0-3.0-186.0","-1","1492035703161","i","e","NO GUN","GUN","[""MaskReal.png"",""./LoCon/SHINEd_Lo_WM-037-025-N.png"",""./GrayGuns/gun_4.png"",""MaskReal.png""]","low","gun","SHINEd_Lo_WM-037-025-N.png","gun_4.png","",""
"","","sequential-priming","190","568689","0.0-3.0-187.0","-1","1492035703161","i","e","NO GUN","GUN","[""MaskReal.png"",""./LoCon/SHINEd_Lo_WM-009-002-N.png"",""./GrayGuns/gun_13.png"",""MaskReal.png""]","low","gun","SHINEd_Lo_WM-009-002-N.png","gun_13.png","",""
"","","sequential-priming","191","571602","0.0-3.0-188.0","-1","1492035703161","i","e","NO GUN","GUN","[""MaskReal.png"",""./LoCon/SHINEd_Lo_WM-041-021-N.png"",""./GrayNonguns/keys_4.png"",""MaskReal.png""]","low","nogun","SHINEd_Lo_WM-041-021-N.png","keys_4.png","",""
"","","sequential-priming","192","574515","0.0-3.0-189.0","-1","1492035703161","i","e","NO GUN","GUN","[""MaskReal.png"",""./HiCon/SHINEd_Hi_WM-028-003-N.png"",""./GrayNonguns/cell_4.png"",""MaskReal.png""]","high","nogun","SHINEd_Hi_WM-028-003-N.png","cell_4.png","",""
"","","sequential-priming","193","577427","0.0-3.0-190.0","-1","1492035703161","i","e","NO GUN","GUN","[""MaskReal.png"",""./LoCon/SHINEd_Lo_WM-233-106-N.png"",""./GrayGuns/gun_12.png"",""MaskReal.png""]","low","gun","SHINEd_Lo_WM-233-106-N.png","gun_12.png","",""
"","","sequential-priming","194","580340","0.0-3.0-191.0","-1","1492035703161","i","e","NO GUN","GUN","[""MaskReal.png"",""./LoCon/SHINEd_Lo_WM-011-002-N.png"",""./GrayGuns/gun_2.png"",""MaskReal.png""]","low","gun","SHINEd_Lo_WM-011-002-N.png","gun_2.png","",""
"","","sequential-priming","195","583252","0.0-3.0-192.0","-1","1492035703161","i","e","NO GUN","GUN","[""MaskReal.png"",""./LoCon/SHINEd_Lo_WM-039-018-N.png"",""./GrayNonguns/tool_5.png"",""MaskReal.png""]","low","nogun","SHINEd_Lo_WM-039-018-N.png","tool_5.png","",""
"","","sequential-priming","196","586166","0.0-3.0-193.0","-1","1492035703161","i","e","NO GUN","GUN","[""MaskReal.png"",""./HiCon/SHINEd_Hi_WM-009-002-N.png"",""./GrayGuns/gun_11.png"",""MaskReal.png""]","high","gun","SHINEd_Hi_WM-009-002-N.png","gun_11.png","",""
"","","sequential-priming","197","589082","0.0-3.0-194.0","-1","1492035703161","i","e","NO GUN","GUN","[""MaskReal.png"",""./HiCon/SHINEd_Hi_WM-026-001-N.png"",""./GrayNonguns/tool_2.png"",""MaskReal.png""]","high","nogun","SHINEd_Hi_WM-026-001-N.png","tool_2.png","",""
"","","sequential-priming","198","591996","0.0-3.0-195.0","-1","1492035703161","i","e","NO GUN","GUN","[""MaskReal.png"",""./HiCon/SHINEd_Hi_WM-012-001-N.png"",""./GrayNonguns/cell_8.png"",""MaskReal.png""]","high","nogun","SHINEd_Hi_WM-012-001-N.png","cell_8.png","",""
"","","sequential-priming","199","594907","0.0-3.0-196.0","-1","1492035703161","i","e","NO GUN","GUN","[""MaskReal.png"",""./HiCon/SHINEd_Hi_WM-251-002-N.png"",""./GrayNonguns/cell_2.png"",""MaskReal.png""]","high","nogun","SHINEd_Hi_WM-251-002-N.png","cell_2.png","",""
"","","sequential-priming","200","597821","0.0-3.0-197.0","-1","1492035703161","i","e","NO GUN","GUN","[""MaskReal.png"",""./LoCon/SHINEd_Lo_WM-010-001-N.png"",""./GrayNonguns/cell_7.png"",""MaskReal.png""]","low","nogun","SHINEd_Lo_WM-010-001-N.png","cell_7.png","",""
"","","sequential-priming","201","600737","0.0-3.0-198.0","-1","1492035703161","i","e","NO GUN","GUN","[""MaskReal.png"",""./LoCon/SHINEd_Lo_WM-032-001-N.png"",""./GrayNonguns/wallet_6.png"",""MaskReal.png""]","low","nogun","SHINEd_Lo_WM-032-001-N.png","wallet_6.png","",""
"","","sequential-priming","202","603647","0.0-3.0-199.0","-1","1492035703161","i","e","NO GUN","GUN","[""MaskReal.png"",""./HiCon/SHINEd_Hi_WM-220-068-N.png"",""./GrayNonguns/keys_6.png"",""MaskReal.png""]","high","nogun","SHINEd_Hi_WM-220-068-N.png","keys_6.png","",""
"","","sequential-priming","203","606561","0.0-3.0-200.0","-1","1492035703161","i","e","NO GUN","GUN","[""MaskReal.png"",""./HiCon/SHINEd_Hi_WM-006-002-N.png"",""./GrayNonguns/wallet_5.png"",""MaskReal.png""]","high","nogun","SHINEd_Hi_WM-006-002-N.png","wallet_5.png","",""
"","","sequential-priming","204","609473","0.0-3.0-201.0","-1","1492035703161","i","e","NO GUN","GUN","[""MaskReal.png"",""./HiCon/SHINEd_Hi_WM-033-025-N.png"",""./GrayGuns/gun_3.png"",""MaskReal.png""]","high","gun","SHINEd_Hi_WM-033-025-N.png","gun_3.png","",""
"","","sequential-priming","205","612389","0.0-3.0-202.0","-1","1492035703161","i","e","NO GUN","GUN","[""MaskReal.png"",""./HiCon/SHINEd_Hi_WM-243-107-N.png"",""./GrayGuns/gun_18.png"",""MaskReal.png""]","high","gun","SHINEd_Hi_WM-243-107-N.png","gun_18.png","",""
"","","sequential-priming","206","615299","0.0-3.0-203.0","-1","1492035703161","i","e","NO GUN","GUN","[""MaskReal.png"",""./LoCon/SHINEd_Lo_WM-038-003-N.png"",""./GrayNonguns/tool_7.png"",""MaskReal.png""]","low","nogun","SHINEd_Lo_WM-038-003-N.png","tool_7.png","",""
"","","sequential-priming","207","618210","0.0-3.0-204.0","-1","1492035703161","i","e","NO GUN","GUN","[""MaskReal.png"",""./LoCon/SHINEd_Lo_WM-231-112-N.png"",""./GrayNonguns/cell_5.png"",""MaskReal.png""]","low","nogun","SHINEd_Lo_WM-231-112-N.png","cell_5.png","",""
"","","sequential-priming","208","621126","0.0-3.0-205.0","-1","1492035703161","i","e","NO GUN","GUN","[""MaskReal.png"",""./HiCon/SHINEd_Hi_WM-249-239-N.png"",""./GrayNonguns/keys_6.png"",""MaskReal.png""]","high","nogun","SHINEd_Hi_WM-249-239-N.png","keys_6.png","",""
"","","sequential-priming","209","624040","0.0-3.0-206.0","-1","1492035703161","i","e","NO GUN","GUN","[""MaskReal.png"",""./LoCon/SHINEd_Lo_WM-004-010-N.png"",""./GrayGuns/gun_2.png"",""MaskReal.png""]","low","gun","SHINEd_Lo_WM-004-010-N.png","gun_2.png","",""
"","","sequential-priming","210","626951","0.0-3.0-207.0","-1","1492035703161","i","e","NO GUN","GUN","[""MaskReal.png"",""./LoCon/SHINEd_Lo_WM-250-157-N.png"",""./GrayNonguns/cell_2.png"",""MaskReal.png""]","low","nogun","SHINEd_Lo_WM-250-157-N.png","cell_2.png","",""
"","","sequential-priming","211","629863","0.0-3.0-208.0","-1","1492035703161","i","e","NO GUN","GUN","[""MaskReal.png"",""./HiCon/SHINEd_Hi_WM-038-003-N.png"",""./GrayNonguns/tool_8.png"",""MaskReal.png""]","high","nogun","SHINEd_Hi_WM-038-003-N.png","tool_8.png","",""
"","","sequential-priming","212","632773","0.0-3.0-209.0","-1","1492035703161","i","e","NO GUN","GUN","[""MaskReal.png"",""./LoCon/SHINEd_Lo_WM-232-070-N.png"",""./GrayNonguns/cell_1.png"",""MaskReal.png""]","low","nogun","SHINEd_Lo_WM-232-070-N.png","cell_1.png","",""
"593","73","sequential-priming","213","635773","0.0-3.0-210.0","-1","1492035703161","i","e","NO GUN","GUN","[""MaskReal.png"",""./HiCon/SHINEd_Hi_WM-249-239-N.png"",""./GrayNonguns/tool_3.png"",""MaskReal.png""]","high","nogun","SHINEd_Hi_WM-249-239-N.png","tool_3.png","993","false"
"","","sequential-priming","214","638687","0.0-3.0-211.0","-1","1492035703161","i","e","NO GUN","GUN","[""MaskReal.png"",""./LoCon/SHINEd_Lo_WM-037-025-N.png"",""./GrayNonguns/keys_4.png"",""MaskReal.png""]","low","nogun","SHINEd_Lo_WM-037-025-N.png","keys_4.png","",""
"","","sequential-priming","215","641601","0.0-3.0-212.0","-1","1492035703161","i","e","NO GUN","GUN","[""MaskReal.png"",""./LoCon/SHINEd_Lo_WM-013-001-N.png"",""./GrayNonguns/wallet_7.png"",""MaskReal.png""]","low","nogun","SHINEd_Lo_WM-013-001-N.png","wallet_7.png","",""
"","","sequential-priming","216","644512","0.0-3.0-213.0","-1","1492035703161","i","e","NO GUN","GUN","[""MaskReal.png"",""./LoCon/SHINEd_Lo_WM-256-138-N.png"",""./GrayGuns/gun_5.png"",""MaskReal.png""]","low","gun","SHINEd_Lo_WM-256-138-N.png","gun_5.png","",""
"","","sequential-priming","217","647424","0.0-3.0-214.0","-1","1492035703161","i","e","NO GUN","GUN","[""MaskReal.png"",""./HiCon/SHINEd_Hi_WM-224-197-N.png"",""./GrayGuns/gun_18.png"",""MaskReal.png""]","high","gun","SHINEd_Hi_WM-224-197-N.png","gun_18.png","",""
"","","sequential-priming","218","650338","0.0-3.0-215.0","-1","1492035703161","i","e","NO GUN","GUN","[""MaskReal.png"",""./HiCon/SHINEd_Hi_WM-034-030-N.png"",""./GrayNonguns/wallet_4.png"",""MaskReal.png""]","high","nogun","SHINEd_Hi_WM-034-030-N.png","wallet_4.png","",""
"","","sequential-priming","219","653248","0.0-3.0-216.0","-1","1492035703161","i","e","NO GUN","GUN","[""MaskReal.png"",""./LoCon/SHINEd_Lo_WM-013-001-N.png"",""./GrayNonguns/wallet_6.png"",""MaskReal.png""]","low","nogun","SHINEd_Lo_WM-013-001-N.png","wallet_6.png","",""
"","","sequential-priming","220","656161","0.0-3.0-217.0","-1","1492035703161","i","e","NO GUN","GUN","[""MaskReal.png"",""./HiCon/SHINEd_Hi_WM-041-021-N.png"",""./GrayNonguns/wallet_4.png"",""MaskReal.png""]","high","nogun","SHINEd_Hi_WM-041-021-N.png","wallet_4.png","",""
"","","sequential-priming","221","659073","0.0-3.0-218.0","-1","1492035703161","i","e","NO GUN","GUN","[""MaskReal.png"",""./LoCon/SHINEd_Lo_WM-014-002-N*.png"",""./GrayNonguns/wallet_7.png"",""MaskReal.png""]","low","nogun","SHINEd_Lo_WM-014-002-N*.png","wallet_7.png","",""
"","","sequential-priming","222","661988","0.0-3.0-219.0","-1","1492035703161","i","e","NO GUN","GUN","[""MaskReal.png"",""./LoCon/SHINEd_Lo_WM-012-001-N.png"",""./GrayGuns/gun_19.png"",""MaskReal.png""]","low","gun","SHINEd_Lo_WM-012-001-N.png","gun_19.png","",""
"","","call-function","223","662011","0.0-4.0","-1","1492035703161","i","e","NO GUN","GUN","","","","","","",""
