"rt","key_press","trial_type","trial_index","time_elapsed","internal_node_id","pid","gunKey","nogunKey","leftObj","rightObj","stimulus","correct","constrast","objType","faceId","objId"
"1364","32","text","0","1367","0.0-0.0","9","e","i","GUN","NO GUN","","","","","",""
"","","sequential-priming","1","5380","0.0-1.0","9","e","i","GUN","NO GUN","[""<div id=\""jspsych-countdown-numbers\"">3</div>"",""<div id=\""jspsych-countdown-numbers\"">2</div>"",""<div id=\""jspsych-countdown-numbers\"">1</div>""]","","","","",""
"503","73","sequential-priming","2","7986","0.0-2.0-0.0","9","e","i","GUN","NO GUN","[""MaskReal.png"",""./LoCon/WM-258-125-N.png"",""./GrayGuns/gun_1.png"",""MaskReal.png""]","false","low","gun","WM-258-125-N.png","gun_1.png"
"457","73","sequential-priming","3","10592","0.0-2.0-1.0","9","e","i","GUN","NO GUN","[""MaskReal.png"",""./LoCon/WM-249-239-N.png"",""./GrayNonguns/cell_5.png"",""MaskReal.png""]","true","low","nogun","WM-249-239-N.png","cell_5.png"
"435","73","sequential-priming","4","13199","0.0-2.0-2.0","9","e","i","GUN","NO GUN","[""MaskReal.png"",""./LoCon/WM-032-001-N.png"",""./GrayNonguns/wallet_8.png"",""MaskReal.png""]","true","low","nogun","WM-032-001-N.png","wallet_8.png"
"405","69","sequential-priming","5","15808","0.0-2.0-3.0","9","e","i","GUN","NO GUN","[""MaskReal.png"",""./HiCon/WM-035-032-N.png"",""./GrayGuns/gun_7.png"",""MaskReal.png""]","true","high","gun","WM-035-032-N.png","gun_7.png"
"420","69","sequential-priming","6","18416","0.0-2.0-4.0","9","e","i","GUN","NO GUN","[""MaskReal.png"",""./HiCon/WM-001-0140-N.png"",""./GrayGuns/gun_15.png"",""MaskReal.png""]","true","high","gun","WM-001-0140-N.png","gun_15.png"
"","","sequential-priming","7","21322","0.0-2.0-5.0","9","e","i","GUN","NO GUN","[""MaskReal.png"",""./LoCon/WM-250-157-N.png"",""./GrayGuns/gun_13.png"",""MaskReal.png""]","","low","gun","WM-250-157-N.png","gun_13.png"
"1793","73","sequential-priming","8","24229","0.0-2.0-6.0","9","e","i","GUN","NO GUN","[""MaskReal.png"",""./LoCon/WM-252-224-N.png"",""./GrayGuns/gun_19.png"",""MaskReal.png""]","false","low","gun","WM-252-224-N.png","gun_19.png"
"","","sequential-priming","9","27136","0.0-2.0-7.0","9","e","i","GUN","NO GUN","[""MaskReal.png"",""./LoCon/WM-004-010-N.png"",""./GrayNonguns/tool_3.png"",""MaskReal.png""]","","low","nogun","WM-004-010-N.png","tool_3.png"
"","","sequential-priming","10","30044","0.0-2.0-8.0","9","e","i","GUN","NO GUN","[""MaskReal.png"",""./HiCon/WM-012-001-N.png"",""./GrayGuns/gun_20.png"",""MaskReal.png""]","","high","gun","WM-012-001-N.png","gun_20.png"
"","","sequential-priming","11","32952","0.0-2.0-9.0","9","e","i","GUN","NO GUN","[""MaskReal.png"",""./HiCon/WM-243-107-N.png"",""./GrayNonguns/keys_5.png"",""MaskReal.png""]","","high","nogun","WM-243-107-N.png","keys_5.png"
"","","sequential-priming","12","35859","0.0-2.0-10.0","9","e","i","GUN","NO GUN","[""MaskReal.png"",""./LoCon/WM-033-025-N.png"",""./GrayNonguns/cell_2.png"",""MaskReal.png""]","","low","nogun","WM-033-025-N.png","cell_2.png"
"","","sequential-priming","13","38766","0.0-2.0-11.0","9","e","i","GUN","NO GUN","[""MaskReal.png"",""./LoCon/WM-011-002-N.png"",""./GrayNonguns/cell_3.png"",""MaskReal.png""]","","low","nogun","WM-011-002-N.png","cell_3.png"
"","","sequential-priming","14","41675","0.0-2.0-12.0","9","e","i","GUN","NO GUN","[""MaskReal.png"",""./LoCon/WM-253-119-N.png"",""./GrayNonguns/keys_4.png"",""MaskReal.png""]","","low","nogun","WM-253-119-N.png","keys_4.png"
"","","sequential-priming","15","44582","0.0-2.0-13.0","9","e","i","GUN","NO GUN","[""MaskReal.png"",""./HiCon/WM-040-022-N.png"",""./GrayNonguns/tool_7.png"",""MaskReal.png""]","","high","nogun","WM-040-022-N.png","tool_7.png"
"","","sequential-priming","16","47493","0.0-2.0-14.0","9","e","i","GUN","NO GUN","[""MaskReal.png"",""./LoCon/WM-012-001-N.png"",""./GrayNonguns/keys_7.png"",""MaskReal.png""]","","low","nogun","WM-012-001-N.png","keys_7.png"
"","","sequential-priming","17","50402","0.0-2.0-15.0","9","e","i","GUN","NO GUN","[""MaskReal.png"",""./LoCon/WM-002-009-N.png"",""./GrayNonguns/wallet_1.png"",""MaskReal.png""]","","low","nogun","WM-002-009-N.png","wallet_1.png"
"","","sequential-priming","18","53309","0.0-2.0-16.0","9","e","i","GUN","NO GUN","[""MaskReal.png"",""./HiCon/WM-253-119-N.png"",""./GrayGuns/gun_5.png"",""MaskReal.png""]","","high","gun","WM-253-119-N.png","gun_5.png"
"","","sequential-priming","19","56220","0.0-2.0-17.0","9","e","i","GUN","NO GUN","[""MaskReal.png"",""./LoCon/WM-038-003-N.png"",""./GrayGuns/gun_14.png"",""MaskReal.png""]","","low","gun","WM-038-003-N.png","gun_14.png"
"","","sequential-priming","20","59129","0.0-2.0-18.0","9","e","i","GUN","NO GUN","[""MaskReal.png"",""./HiCon/WM-250-157-N.png"",""./GrayNonguns/keys_1.png"",""MaskReal.png""]","","high","nogun","WM-250-157-N.png","keys_1.png"
"","","sequential-priming","21","62036","0.0-2.0-19.0","9","e","i","GUN","NO GUN","[""MaskReal.png"",""./LoCon/WM-001-0140-N.png"",""./GrayNonguns/tool_6.png"",""MaskReal.png""]","","low","nogun","WM-001-0140-N.png","tool_6.png"
"","","sequential-priming","22","64943","0.0-2.0-20.0","9","e","i","GUN","NO GUN","[""MaskReal.png"",""./LoCon/WM-242-011-N.png"",""./GrayGuns/gun_16.png"",""MaskReal.png""]","","low","gun","WM-242-011-N.png","gun_16.png"
"","","sequential-priming","23","67852","0.0-2.0-21.0","9","e","i","GUN","NO GUN","[""MaskReal.png"",""./HiCon/WM-249-239-N.png"",""./GrayNonguns/tool_4.png"",""MaskReal.png""]","","high","nogun","WM-249-239-N.png","tool_4.png"
"","","sequential-priming","24","70762","0.0-2.0-22.0","9","e","i","GUN","NO GUN","[""MaskReal.png"",""./HiCon/WM-019-003-N.png"",""./GrayGuns/gun_6.png"",""MaskReal.png""]","","high","gun","WM-019-003-N.png","gun_6.png"
"","","sequential-priming","25","73669","0.0-2.0-23.0","9","e","i","GUN","NO GUN","[""MaskReal.png"",""./HiCon/WM-010-001-N.png"",""./GrayGuns/gun_17.png"",""MaskReal.png""]","","high","gun","WM-010-001-N.png","gun_17.png"
"","","sequential-priming","26","76577","0.0-2.0-24.0","9","e","i","GUN","NO GUN","[""MaskReal.png"",""./HiCon/WM-004-010-N.png"",""./GrayNonguns/wallet_6.png"",""MaskReal.png""]","","high","nogun","WM-004-010-N.png","wallet_6.png"
"","","sequential-priming","27","79486","0.0-2.0-25.0","9","e","i","GUN","NO GUN","[""MaskReal.png"",""./HiCon/WM-034-030-N.png"",""./GrayGuns/gun_11.png"",""MaskReal.png""]","","high","gun","WM-034-030-N.png","gun_11.png"
"","","sequential-priming","28","82392","0.0-2.0-26.0","9","e","i","GUN","NO GUN","[""MaskReal.png"",""./HiCon/WM-036-031-N.png"",""./GrayGuns/gun_8.png"",""MaskReal.png""]","","high","gun","WM-036-031-N.png","gun_8.png"
"","","sequential-priming","29","85300","0.0-2.0-27.0","9","e","i","GUN","NO GUN","[""MaskReal.png"",""./HiCon/WM-033-025-N.png"",""./GrayNonguns/tool_1.png"",""MaskReal.png""]","","high","nogun","WM-033-025-N.png","tool_1.png"
"","","sequential-priming","30","88208","0.0-2.0-28.0","9","e","i","GUN","NO GUN","[""MaskReal.png"",""./HiCon/WM-257-161-N.png"",""./GrayGuns/gun_2.png"",""MaskReal.png""]","","high","gun","WM-257-161-N.png","gun_2.png"
"","","sequential-priming","31","91116","0.0-2.0-29.0","9","e","i","GUN","NO GUN","[""MaskReal.png"",""./LoCon/WM-257-161-N.png"",""./GrayGuns/gun_18.png"",""MaskReal.png""]","","low","gun","WM-257-161-N.png","gun_18.png"
