"rt","key_press","trial_type","trial_index","time_elapsed","internal_node_id","pid","gunKey","nogunKey","leftObj","rightObj","stimulus","correct","constrast","objType","faceId","objId"
"7159","32","text","0","7160","0.0-0.0","12","i","e","NO GUN","GUN","","","","","",""
"","","sequential-priming","1","11174","0.0-1.0","12","i","e","NO GUN","GUN","[""<div id=\""jspsych-countdown-numbers\"">3</div>"",""<div id=\""jspsych-countdown-numbers\"">2</div>"",""<div id=\""jspsych-countdown-numbers\"">1</div>""]","","","","",""
"654","69","sequential-priming","2","14082","0.0-2.0-0.0","12","i","e","NO GUN","GUN","[""MaskReal.png"",""./HiCon/WM-258-125-N.png"",""./GrayNonguns/wallet_2.png"",""MaskReal.png""]","true","high","nogun","WM-258-125-N.png","wallet_2.png"
"825","69","sequential-priming","3","16991","0.0-2.0-1.0","12","i","e","NO GUN","GUN","[""MaskReal.png"",""./LoCon/WM-040-022-N.png"",""./GrayNonguns/keys_3.png"",""MaskReal.png""]","true","low","nogun","WM-040-022-N.png","keys_3.png"
"741","69","sequential-priming","4","19901","0.0-2.0-2.0","12","i","e","NO GUN","GUN","[""MaskReal.png"",""./HiCon/WM-029-023-N.png"",""./GrayGuns/gun_7.png"",""MaskReal.png""]","false","high","gun","WM-029-023-N.png","gun_7.png"
"926","73","sequential-priming","5","22824","0.0-2.0-3.0","12","i","e","NO GUN","GUN","[""MaskReal.png"",""./LoCon/WM-004-010-N.png"",""./GrayGuns/gun_9.png"",""MaskReal.png""]","true","low","gun","WM-004-010-N.png","gun_9.png"
"668","69","sequential-priming","6","25733","0.0-2.0-4.0","12","i","e","NO GUN","GUN","[""MaskReal.png"",""./LoCon/WM-252-224-N.png"",""./GrayNonguns/wallet_4.png"",""MaskReal.png""]","true","low","nogun","WM-252-224-N.png","wallet_4.png"
"774","69","sequential-priming","7","28641","0.0-2.0-5.0","12","i","e","NO GUN","GUN","[""MaskReal.png"",""./LoCon/WM-014-002-N*.png"",""./GrayGuns/gun_19.png"",""MaskReal.png""]","false","low","gun","WM-014-002-N*.png","gun_19.png"
"","","sequential-priming","8","31548","0.0-2.0-6.0","12","i","e","NO GUN","GUN","[""MaskReal.png"",""./HiCon/WM-243-107-N.png"",""./GrayNonguns/wallet_3.png"",""MaskReal.png""]","","high","nogun","WM-243-107-N.png","wallet_3.png"
"","","sequential-priming","9","34457","0.0-2.0-7.0","12","i","e","NO GUN","GUN","[""MaskReal.png"",""./LoCon/WM-243-107-N.png"",""./GrayGuns/gun_4.png"",""MaskReal.png""]","","low","gun","WM-243-107-N.png","gun_4.png"
"","","sequential-priming","10","38247","0.0-2.0-8.0","12","i","e","NO GUN","GUN","[""MaskReal.png"",""./HiCon/WM-015-002-N*.png"",""./GrayGuns/gun_16.png"",""MaskReal.png""]","","high","gun","WM-015-002-N*.png","gun_16.png"
"","","sequential-priming","11","45602","0.0-2.0-9.0","12","i","e","NO GUN","GUN","[""MaskReal.png"",""./HiCon/WM-012-001-N.png"",""./GrayNonguns/cell_7.png"",""MaskReal.png""]","","high","nogun","WM-012-001-N.png","cell_7.png"
"","","sequential-priming","12","49247","0.0-2.0-10.0","12","i","e","NO GUN","GUN","[""MaskReal.png"",""./LoCon/WM-034-030-N.png"",""./GrayGuns/gun_5.png"",""MaskReal.png""]","","low","gun","WM-034-030-N.png","gun_5.png"
"","","sequential-priming","13","52821","0.0-2.0-11.0","12","i","e","NO GUN","GUN","[""MaskReal.png"",""./LoCon/WM-250-157-N.png"",""./GrayNonguns/keys_6.png"",""MaskReal.png""]","","low","nogun","WM-250-157-N.png","keys_6.png"
"","","sequential-priming","14","55847","0.0-2.0-12.0","12","i","e","NO GUN","GUN","[""MaskReal.png"",""./HiCon/WM-041-021-N.png"",""./GrayGuns/gun_18.png"",""MaskReal.png""]","","high","gun","WM-041-021-N.png","gun_18.png"
"","","sequential-priming","15","58754","0.0-2.0-13.0","12","i","e","NO GUN","GUN","[""MaskReal.png"",""./LoCon/WM-041-021-N.png"",""./GrayGuns/gun_1.png"",""MaskReal.png""]","","low","gun","WM-041-021-N.png","gun_1.png"
"","","sequential-priming","16","62246","0.0-2.0-14.0","12","i","e","NO GUN","GUN","[""MaskReal.png"",""./HiCon/WM-004-010-N.png"",""./GrayNonguns/tool_8.png"",""MaskReal.png""]","","high","nogun","WM-004-010-N.png","tool_8.png"
"","","sequential-priming","17","70246","0.0-2.0-15.0","12","i","e","NO GUN","GUN","[""MaskReal.png"",""./LoCon/WM-028-003-N.png"",""./GrayNonguns/cell_6.png"",""MaskReal.png""]","","low","nogun","WM-028-003-N.png","cell_6.png"
"","","sequential-priming","18","78246","0.0-2.0-16.0","12","i","e","NO GUN","GUN","[""MaskReal.png"",""./HiCon/WM-252-224-N.png"",""./GrayNonguns/keys_2.png"",""MaskReal.png""]","","high","nogun","WM-252-224-N.png","keys_2.png"
"","","sequential-priming","19","86246","0.0-2.0-17.0","12","i","e","NO GUN","GUN","[""MaskReal.png"",""./LoCon/WM-033-025-N.png"",""./GrayGuns/gun_15.png"",""MaskReal.png""]","","low","gun","WM-033-025-N.png","gun_15.png"
"","","sequential-priming","20","94245","0.0-2.0-18.0","12","i","e","NO GUN","GUN","[""MaskReal.png"",""./HiCon/WM-014-002-N*.png"",""./GrayNonguns/cell_1.png"",""MaskReal.png""]","","high","nogun","WM-014-002-N*.png","cell_1.png"
"","","sequential-priming","21","102245","0.0-2.0-19.0","12","i","e","NO GUN","GUN","[""MaskReal.png"",""./HiCon/WM-031-003-N.png"",""./GrayGuns/gun_3.png"",""MaskReal.png""]","","high","gun","WM-031-003-N.png","gun_3.png"
"","","sequential-priming","22","110245","0.0-2.0-20.0","12","i","e","NO GUN","GUN","[""MaskReal.png"",""./LoCon/WM-253-119-N.png"",""./GrayGuns/gun_10.png"",""MaskReal.png""]","","low","gun","WM-253-119-N.png","gun_10.png"
"","","sequential-priming","23","118244","0.0-2.0-21.0","12","i","e","NO GUN","GUN","[""MaskReal.png"",""./HiCon/WM-017-002-N.png"",""./GrayGuns/gun_8.png"",""MaskReal.png""]","","high","gun","WM-017-002-N.png","gun_8.png"
"","","sequential-priming","24","126244","0.0-2.0-22.0","12","i","e","NO GUN","GUN","[""MaskReal.png"",""./LoCon/WM-026-001-N.png"",""./GrayGuns/gun_6.png"",""MaskReal.png""]","","low","gun","WM-026-001-N.png","gun_6.png"
"","","sequential-priming","25","134244","0.0-2.0-23.0","12","i","e","NO GUN","GUN","[""MaskReal.png"",""./HiCon/WM-036-031-N.png"",""./GrayGuns/gun_14.png"",""MaskReal.png""]","","high","gun","WM-036-031-N.png","gun_14.png"
"","","sequential-priming","26","142243","0.0-2.0-24.0","12","i","e","NO GUN","GUN","[""MaskReal.png"",""./LoCon/WM-009-002-N.png"",""./GrayNonguns/keys_8.png"",""MaskReal.png""]","","low","nogun","WM-009-002-N.png","keys_8.png"
"","","sequential-priming","27","146748","0.0-2.0-25.0","12","i","e","NO GUN","GUN","[""MaskReal.png"",""./HiCon/WM-039-018-N.png"",""./GrayNonguns/keys_4.png"",""MaskReal.png""]","","high","nogun","WM-039-018-N.png","keys_4.png"
"","","sequential-priming","28","149655","0.0-2.0-26.0","12","i","e","NO GUN","GUN","[""MaskReal.png"",""./LoCon/WM-036-031-N.png"",""./GrayNonguns/wallet_6.png"",""MaskReal.png""]","","low","nogun","WM-036-031-N.png","wallet_6.png"
"","","sequential-priming","29","152564","0.0-2.0-27.0","12","i","e","NO GUN","GUN","[""MaskReal.png"",""./LoCon/WM-031-003-N (1).png"",""./GrayNonguns/tool_3.png"",""MaskReal.png""]","","low","nogun","WM-031-003-N (1).png","tool_3.png"
"","","sequential-priming","30","155471","0.0-2.0-28.0","12","i","e","NO GUN","GUN","[""MaskReal.png"",""./HiCon/WM-256-138-N.png"",""./GrayGuns/gun_20.png"",""MaskReal.png""]","","high","gun","WM-256-138-N.png","gun_20.png"
"","","sequential-priming","31","158380","0.0-2.0-29.0","12","i","e","NO GUN","GUN","[""MaskReal.png"",""./HiCon/WM-006-002-N.png"",""./GrayNonguns/keys_5.png"",""MaskReal.png""]","","high","nogun","WM-006-002-N.png","keys_5.png"
